aX, aY, aZ, gX, gY, gZ
-1.013, -0.663, 1.273, -118.042, -27.039, -5.676
-0.714, -2.045, 1.422, 18.860, -33.691, -24.902
-0.738, -2.364, 1.342, -44.739, 73.059, -45.288
-0.767, -2.390, 1.034, -123.169, 168.762, -45.959
-0.847, -2.370, 0.626, -166.687, 221.741, -27.771
-0.579, -1.928, -0.032, -184.692, 247.986, 9.644
-0.410, -1.585, -0.117, -150.879, 245.789, 61.707
-0.332, -1.214, -0.327, -129.211, 206.665, 85.938
-0.182, -1.080, 0.005, -88.074, 155.212, 91.919
-0.180, -1.223, 0.358, -70.435, 110.657, 77.454
-0.175, -1.211, 0.367, -84.656, 100.098, 72.021
-0.128, -1.127, 0.264, -104.065, 107.544, 69.214
-0.087, -1.109, 0.001, -116.272, 116.211, 63.477
-0.074, -1.116, 0.073, -107.483, 102.417, 62.012
-0.039, -1.073, 0.218, -96.985, 84.473, 63.354
-0.048, -1.042, 0.380, -93.689, 76.050, 65.369
-0.100, -1.003, 0.505, -94.543, 76.599, 66.956
-0.100, -0.919, 0.479, -94.177, 85.632, 70.740
-0.083, -0.822, 0.477, -91.309, 96.497, 73.914
-0.069, -0.793, 0.613, -85.693, 107.544, 74.219
-0.016, -0.629, 0.517, -91.125, 127.686, 73.120
0.037, -0.476, 0.167, -105.286, 155.884, 62.378
-0.012, -0.372, -0.018, -111.511, 170.593, 42.725
-0.024, -0.297, 0.007, -110.901, 177.307, 22.278
-0.118, -0.234, 0.090, -111.450, 192.017, -0.977
1.943, -3.989, -3.658, 47.485, 183.350, 27.100
0.467, -2.226, -0.451, 414.673, -73.303, 391.785
0.031, -1.669, 0.693, 350.952, -243.042, 578.247
0.112, -0.655, 0.069, 252.747, -142.456, 596.680
3.484, 3.895, -2.173, 82.520, -29.175, 527.832
1.609, -1.265, -0.222, -41.138, -81.848, 190.918
0.611, -1.172, 0.695, 31.311, -92.285, 58.105
0.462, -0.693, -0.122, -56.152, 92.163, 90.576
0.444, -0.791, -0.076, -89.783, 142.090, 105.896
1.165, -0.554, -0.147, -116.882, 142.883, 119.507
1.162, -0.624, -0.122, -114.990, 101.440, 133.179
1.311, -0.585, -0.146, -87.524, 53.650, 145.325
1.364, -0.512, -0.002, -67.017, 49.561, 153.137
1.640, -0.512, -0.408, -47.913, 61.340, 157.288
1.651, -0.681, -0.330, -18.921, 56.824, 156.067
1.618, -0.821, -0.553, -8.240, 56.641, 161.072
1.567, -0.946, -0.721, -17.212, 77.271, 178.101
1.545, -1.075, -0.881, -31.677, 99.487, 200.806
1.486, -1.199, -1.065, -43.030, 118.652, 226.257
1.350, -1.270, -1.210, -50.232, 135.193, 254.456
1.190, -1.276, -1.372, -55.359, 144.531, 284.424
0.984, -1.186, -1.512, -60.425, 143.738, 317.383
0.741, -0.979, -1.627, -67.932, 136.963, 351.807
0.474, -0.656, -1.775, -74.829, 123.657, 382.141
0.239, -0.218, -1.886, -84.167, 102.478, 401.428
0.038, 0.248, -1.993, -96.863, 76.965, 402.649
-0.098, 0.638, -2.057, -104.370, 43.579, 381.042
-0.155, 0.857, -2.066, -102.112, -0.244, 339.539
-0.235, 0.874, -1.916, -92.834, -50.964, 290.894
-0.380, 0.753, -1.629, -80.994, -107.727, 250.916
-0.579, 0.664, -1.186, -71.960, -165.710, 224.121
-0.881, 0.740, -0.233, -71.960, -213.074, 212.708
-0.814, 1.211, 1.118, -94.421, -234.497, 196.411
-0.354, 1.818, 2.234, -135.437, -199.951, 170.166
-0.387, 1.875, 3.029, -162.109, -117.432, 126.892
-0.745, 1.223, 3.628, -157.471, -33.325, 79.285
-0.615, 0.558, 3.807, -137.695, 17.578, 35.889
-0.366, 0.183, 3.743, -109.070, 18.372, 17.273
0.020, 0.039, 3.837, -72.571, -24.963, 20.264
0.484, 0.066, 4.000, -39.429, -50.781, 44.006
0.903, 0.193, 4.000, -5.188, -35.278, 57.678
1.266, 0.426, 4.000, 39.795, 9.705, 38.940
1.324, 0.632, 4.000, 82.825, 50.415, -4.761
0.890, 0.520, 3.388, 110.229, 65.613, -43.396
0.171, 0.241, 2.534, 110.962, 55.603, -48.767
-0.300, 0.143, 2.012, 85.022, 46.570, -16.541
-0.400, 0.257, 1.669, 46.753, 46.997, 37.720
-0.336, 0.490, 1.490, 10.132, 52.795, 92.773
-0.239, 0.719, 1.354, -14.343, 59.143, 128.113
-0.159, 0.874, 1.182, -27.466, 62.866, 140.625
-0.109, 0.985, 1.011, -29.968, 58.411, 134.338
-0.042, 1.021, 0.853, -26.489, 49.683, 111.145
0.029, 0.995, 0.660, -18.127, 39.307, 77.332
0.105, 0.923, 0.477, -8.057, 27.527, 42.786
0.199, 0.833, 0.378, -1.465, 17.822, 14.099
0.333, 0.777, 0.311, -1.221, 13.489, -7.202
0.445, 0.728, 0.218, -4.272, 13.367, -21.606
0.560, 0.681, 0.086, -9.155, 16.541, -30.945
0.650, 0.602, -0.078, -18.616, 19.653, -39.246
0.730, 0.481, -0.218, -32.227, 20.691, -45.715
0.764, 0.366, -0.393, -46.570, 18.616, -48.584
0.816, 0.351, -0.458, -60.852, 11.475, -50.903
0.935, 0.261, -0.774, -65.796, -13.550, -51.697
1.063, 0.235, -0.788, -70.740, -28.992, -60.852
1.211, 0.235, -0.983, -59.570, -35.156, -70.801
1.257, 0.242, -1.191, -44.922, -46.570, -81.177
1.274, 0.316, -1.247, -39.185, -58.838, -88.379
1.334, 0.229, -1.428, -34.790, -68.848, -89.355
1.393, 0.193, -1.398, -43.091, -86.426, -84.900
1.465, 0.187, -1.151, -56.152, -114.014, -77.393
1.652, 0.102, -0.962, -62.134, -134.827, -73.914
1.735, 0.022, -0.719, -64.087, -145.874, -75.989
1.801, -0.083, -0.474, -59.448, -143.433, -77.759
1.854, -0.198, -0.470, -52.246, -117.615, -80.322
1.859, -0.322, -0.444, -41.382, -80.505, -82.581
1.917, -0.467, -0.617, -22.766, -29.968, -83.374
1.887, -0.568, -0.731, -5.127, -7.263, -81.360
1.814, -0.677, -0.824, 13.794, 2.197, -77.332
1.740, -0.768, -0.931, 31.067, 11.230, -62.744
1.667, -0.794, -1.003, 44.373, 18.555, -36.133
1.543, -0.757, -1.089, 51.636, 19.165, -0.061
1.384, -0.651, -1.182, 49.561, 14.893, 44.556
1.277, -0.483, -1.203, 38.940, 6.470, 97.168
1.203, -0.263, -1.114, 24.170, -10.132, 151.062
1.147, -0.009, -0.974, 13.489, -26.245, 195.496
1.094, 0.266, -0.861, 10.010, -35.767, 223.816
1.075, 0.526, -0.818, 13.062, -36.560, 234.924
1.075, 0.753, -0.802, 17.578, -32.959, 230.530
1.100, 0.942, -0.785, 21.484, -30.151, 215.027
1.139, 1.078, -0.790, 27.527, -24.231, 189.575
1.158, 1.147, -0.817, 37.537, -14.709, 155.945
1.147, 1.168, -0.899, 51.086, -3.906, 119.873
1.086, 1.164, -1.023, 63.354, 7.690, 88.013
1.040, 1.177, -1.192, 70.007, 18.738, 62.561
0.876, 1.215, -1.496, 67.444, 14.404, 24.658
0.711, 1.178, -1.551, 61.462, 0.854, 8.179
0.500, 1.112, -1.487, 49.072, -17.273, -4.517
0.240, 1.018, -1.296, 25.757, -36.377, -13.672
-0.041, 0.891, -1.021, -7.690, -54.871, -19.653
-0.433, 0.770, -0.664, -46.326, -82.458, -19.348
-0.924, 0.612, -0.239, -86.914, -105.225, -22.095
-1.400, 0.351, 0.322, -129.456, -111.023, -20.569
-1.911, -0.070, 1.464, -181.030, -127.380, 0.366
-1.928, -0.272, 3.453, -236.694, -144.348, 43.823
-1.307, -0.040, 4.000, -274.841, -133.118, 86.365
-0.080, 0.191, 4.000, -247.253, -104.187, 93.445
0.570, 0.385, 4.000, -134.521, -99.854, 61.951
0.728, 0.537, 4.000, 4.089, -67.322, 20.935
0.701, 0.640, 4.000, 103.394, -23.437, -7.507
0.554, 0.727, 4.000, 150.146, 16.052, -19.653
0.142, 0.807, 3.532, 162.354, 52.979, -20.264
-0.311, 0.841, 2.496, 147.888, 80.872, -3.845
-0.528, 0.941, 1.841, 105.286, 98.938, 30.151
-0.485, 1.092, 1.491, 43.701, 114.136, 69.458
-0.363, 1.189, 1.310, -10.986, 122.070, 101.379
-0.258, 1.255, 1.210, -48.889, 124.512, 119.080
-0.193, 1.288, 1.065, -69.519, 126.892, 121.460
-0.116, 1.309, 0.872, -75.623, 128.906, 114.685
-0.150, 1.323, 0.652, -74.219, 127.136, 98.877
-0.123, 1.297, 0.456, -66.406, 128.662, 78.186
-0.052, 1.265, 0.313, -56.641, 128.418, 53.589
0.038, 1.218, 0.232, -40.833, 118.042, 23.682
0.148, 1.137, 0.157, -16.724, 99.609, -8.545
0.230, 1.022, 0.074, 9.827, 87.891, -42.908
0.315, 0.903, -0.024, 33.203, 80.627, -70.007
0.388, 0.820, -0.147, 51.941, 75.195, -88.623
0.483, 0.741, -0.300, 64.209, 70.190, -102.844
0.644, 0.661, -0.441, 69.824, 65.002, -112.549
0.697, 0.611, -0.647, 69.336, 57.190, -117.188
0.840, 0.613, -0.864, 61.340, 60.181, -119.995
0.942, 0.629, -1.118, 48.828, 56.091, -116.882
1.023, 0.707, -1.338, 35.278, 44.983, -111.389
1.032, 0.807, -1.505, 29.480, 28.809, -108.398
0.985, 0.881, -1.629, 33.691, 17.639, -106.873
0.912, 0.887, -1.652, 42.603, 14.771, -104.675
0.892, 0.883, -1.702, 54.688, 18.738, -98.755
0.863, 0.891, -1.839, 63.110, 21.667, -96.436
0.927, 0.833, -1.974, 61.096, 9.033, -102.051
1.052, 0.729, -2.070, 44.495, -20.752, -106.506
1.222, 0.604, -2.074, 14.038, -58.472, -108.154
1.411, 0.380, -1.942, -19.592, -95.032, -112.610
1.599, 0.064, -1.715, -47.974, -122.681, -118.347
1.644, -0.321, -1.416, -70.313, -137.268, -118.164
1.708, -0.631, -1.253, -86.365, -134.888, -102.661
1.648, -0.810, -1.134, -100.342, -115.906, -63.660
1.677, -0.894, -0.972, -114.075, -104.065, -13.062
1.665, -0.928, -0.805, -110.840, -92.896, 43.091
1.605, -0.778, -0.696, -103.455, -84.106, 91.980
1.535, -0.553, -0.634, -93.445, -72.571, 135.376
1.488, -0.305, -0.583, -77.881, -53.406, 171.143
1.433, -0.086, -0.555, -58.716, -32.654, 193.115
1.401, 0.124, -0.565, -39.307, -15.259, 200.745
1.335, 0.308, -0.617, -20.020, 1.099, 195.740
1.297, 0.461, -0.680, -0.977, 18.066, 182.251
1.229, 0.561, -0.784, 16.113, 23.987, 160.583
1.143, 0.624, -0.872, 29.114, 20.813, 133.179
1.075, 0.664, -0.873, 36.377, 12.817, 106.262
1.029, 0.688, -0.843, 37.720, 1.343, 86.853
0.880, 0.744, -0.718, 30.396, -30.457, 80.200
0.658, 0.824, -0.612, 18.127, -65.491, 71.472
0.648, 0.967, -0.543, -3.296, -37.720, 61.646
0.475, 1.068, -0.474, -30.457, -10.925, 55.176
0.198, 1.120, -0.373, -56.458, 0.366, 48.706
-0.117, 1.111, -0.260, -82.031, 4.150, 39.429
-0.543, 0.914, -0.069, -112.305, -2.747, 34.485
-1.109, 0.605, 0.250, -151.306, -10.193, 31.738
-1.657, 0.223, 0.893, -187.256, -10.498, 45.654
-1.975, 0.007, 1.995, -218.933, -33.875, 90.332
-1.759, 0.147, 3.518, -243.225, -50.415, 153.259
-0.941, 0.788, 4.000, -218.323, -50.537, 212.646
0.345, 1.786, 4.000, -104.248, -48.340, 221.069
1.593, 2.785, 4.000, 37.354, -39.307, 135.376
1.848, 2.826, 4.000, 115.906, 16.357, -12.512
1.323, 2.276, 4.000, 157.898, 65.979, -133.301
0.110, 1.509, 3.178, 181.641, 76.843, -190.125
-0.727, 0.874, 1.968, 175.598, 81.482, -195.374
-0.991, 0.499, 1.322, 144.165, 86.060, -159.912
-0.890, 0.437, 1.018, 93.384, 93.384, -89.722
-0.662, 0.617, 0.863, 36.255, 100.891, -3.418
-0.454, 0.844, 0.749, -14.160, 105.042, 73.975
-0.320, 1.103, 0.651, -55.054, 107.788, 125.061
-0.146, 1.321, 0.517, -84.045, 113.342, 151.245
0.014, 1.484, 0.354, -101.013, 121.094, 152.649
0.114, 1.565, 0.204, -101.868, 117.981, 123.901
0.181, 1.535, 0.026, -86.182, 106.689, 72.327
0.240, 1.386, -0.137, -62.744, 89.478, 14.832
0.311, 1.210, -0.246, -36.133, 69.763, -33.142
0.460, 1.090, -0.343, -9.460, 55.237, -71.655
0.494, 0.975, -0.453, 15.930, 44.128, -99.365
0.599, 0.849, -0.525, 36.804, 37.231, -116.272
0.697, 0.740, -0.671, 51.575, 35.889, -122.986
0.760, 0.651, -0.819, 60.059, 32.715, -119.995
0.873, 0.613, -1.000, 63.965, 31.494, -110.840
0.953, 0.642, -1.166, 60.303, 22.400, -104.065
1.041, 0.642, -1.300, 54.504, 7.507, -90.027
1.122, 0.660, -1.348, 48.218, -0.366, -82.520
1.174, 0.669, -1.297, 47.485, 3.723, -80.078
1.220, 0.677, -1.273, 54.138, 9.155, -81.604
1.187, 0.721, -1.263, 62.256, 8.301, -88.867
1.165, 0.710, -1.287, 64.514, -2.319, -96.375
1.212, 0.682, -1.245, 57.739, -16.418, -97.351
1.292, 0.631, -1.123, 46.692, -25.696, -97.229
1.338, 0.587, -0.976, 35.522, -30.334, -99.976
1.363, 0.495, -0.897, 22.949, -32.349, -102.783
1.403, 0.410, -0.765, 5.676, -28.564, -102.844
1.404, 0.238, -0.764, -6.653, -14.893, -102.783
1.404, 0.125, -0.754, -17.395, -0.122, -99.976
1.387, 0.019, -0.824, -23.499, 13.611, -93.750
1.404, -0.068, -0.946, -26.978, 24.414, -84.045
1.373, -0.105, -1.070, -31.189, 28.137, -72.815
1.364, -0.164, -1.160, -34.119, 28.381, -57.373
1.346, -0.151, -1.183, -43.701, 20.935, -39.001
1.283, -0.172, -1.207, -48.584, 18.433, -23.621
1.208, -0.119, -1.191, -56.458, 25.879, 8.423
1.147, -0.090, -1.177, -56.946, 34.363, 25.330
1.083, -0.050, -1.242, -54.443, 42.297, 41.748
1.028, -0.009, -1.297, -51.025, 43.091, 56.274
0.995, 0.036, -1.354, -46.509, 38.208, 67.993
0.927, 0.116, -1.400, -44.189, 29.968, 76.965
0.877, 0.185, -1.427, -45.532, 21.423, 83.008
0.788, 0.259, -1.466, -43.823, 13.428, 85.571
0.668, 0.334, -1.553, -41.687, 2.258, 85.266
0.538, 0.416, -1.578, -43.335, -12.024, 88.867
0.222, 0.525, -1.568, -49.011, -39.856, 95.520
0.043, 0.612, -1.442, -56.885, -63.538, 97.412
-0.210, 0.678, -1.144, -63.782, -85.571, 96.497
-0.472, 0.768, -0.664, -66.589, -111.511, 90.698
-0.711, 0.831, 0.030, -61.584, -128.662, 79.102
-0.887, 0.884, 0.849, -61.951, -129.456, 62.866
-0.956, 0.987, 1.885, -67.139, -109.741, 46.204
-0.684, 1.191, 3.028, -74.585, -77.332, 24.353
-0.205, 1.105, 3.985, -77.271, -43.152, 1.343
0.592, 1.123, 4.000, -71.106, -22.461, -11.841
1.276, 1.197, 4.000, -38.452, -31.128, -30.212
1.706, 1.356, 4.000, 20.813, -50.720, -61.523
1.707, 1.341, 4.000, 78.247, -30.457, -81.177
1.304, 1.211, 3.975, 110.596, 17.517, -85.083
0.673, 0.960, 2.830, 121.216, 54.260, -72.144
0.078, 0.796, 1.908, 115.173, 74.585, -41.199
-0.259, 0.804, 1.210, 88.928, 90.942, -4.211
-0.322, 0.919, 0.741, 48.462, 104.126, 36.865
-0.246, 0.987, 0.489, 2.991, 107.178, 74.768
-0.132, 0.968, 0.364, -40.039, 98.389, 105.652
-0.002, 0.964, 0.318, -77.148, 88.501, 123.291
0.141, 0.956, 0.281, -96.802, 90.149, 127.808
0.268, 0.943, 0.172, -94.727, 100.586, 117.432
0.314, 0.956, -0.017, -77.393, 101.379, 94.849
0.349, 0.972, -0.197, -54.077, 88.440, 66.711
0.420, 0.989, -0.375, -30.457, 65.735, 35.889
0.508, 0.966, -0.483, -3.906, 52.795, 5.859
0.609, 0.888, -0.533, 19.592, 47.913, -21.484
0.739, 0.784, -0.600, 37.659, 43.518, -44.739
0.805, 0.658, -0.668, 50.476, 37.720, -59.082
0.829, 0.581, -0.729, 56.396, 28.625, -69.397
0.910, 0.568, -0.697, 59.509, 30.396, -73.486
1.026, 0.453, -0.783, 62.073, 34.790, -64.636
1.035, 0.420, -0.883, 60.547, 31.738, -59.143
1.081, 0.401, -1.002, 56.580, 31.799, -50.415
1.128, 0.389, -1.130, 51.880, 30.334, -38.391
1.151, 0.365, -1.228, 50.171, 29.114, -27.039
1.165, 0.354, -1.313, 46.387, 26.306, -15.747
1.143, 0.350, -1.358, 39.001, 21.057, -0.732
1.122, 0.396, -1.362, 31.433, 19.043, 18.921
1.141, 0.459, -1.316, 27.527, 19.531, 37.964
1.091, 0.554, -1.242, 22.156, 20.386, 53.406
1.066, 0.660, -1.204, 13.245, 22.522, 66.223
1.064, 0.727, -1.241, 4.822, 28.564, 71.716
1.059, 0.787, -1.258, -2.502, 32.471, 68.970
1.044, 0.807, -1.293, -7.141, 32.410, 58.838
1.032, 0.813, -1.328, -9.888, 31.250, 44.189
0.993, 0.788, -1.356, -12.390, 28.625, 25.940
0.949, 0.716, -1.351, -14.709, 24.536, 6.958
0.907, 0.624, -1.322, -15.930, 18.494, -9.216
0.852, 0.538, -1.285, -17.029, 12.573, -21.851
0.807, 0.456, -1.250, -18.433, 7.935, -31.067
0.769, 0.377, -1.236, -19.775, 3.418, -36.743
0.728, 0.303, -1.230, -20.691, -1.831, -39.978
0.704, 0.239, -1.217, -20.142, -8.423, -40.405
0.658, 0.189, -1.235, -18.494, -16.296, -37.415
0.618, 0.166, -1.263, -17.517, -26.245, -30.640
0.574, 0.154, -1.269, -18.311, -36.926, -20.142
0.524, 0.148, -1.249, -19.714, -47.302, -3.357
0.519, 0.200, -1.245, -22.400, -54.932, 21.057
0.575, 0.307, -1.250, -26.184, -59.753, 45.776
0.616, 0.437, -1.273, -27.100, -66.833, 61.340
0.635, 0.541, -1.287, -22.949, -74.707, 63.843
0.622, 0.592, -1.286, -16.174, -82.764, 55.908
0.561, 0.610, -1.265, -10.559, -91.980, 43.701
0.491, 0.601, -1.222, -6.470, -101.135, 33.386
0.400, 0.596, -1.137, -2.686, -111.694, 28.748
0.205, 0.574, -0.996, 0.793, -132.629, 32.715
0.024, 0.582, -0.825, 1.038, -145.996, 26.855
-0.147, 0.559, -0.589, -1.770, -154.419, 23.804
-0.321, 0.542, -0.260, -14.587, -162.109, 25.940
-0.517, 0.529, 0.183, -42.297, -161.377, 32.532
-0.722, 0.509, 0.861, -83.069, -147.827, 48.157
-0.548, 0.693, 2.214, -144.958, -112.671, 69.885
-0.080, 0.922, 3.260, -176.147, -67.627, 77.087
0.162, 1.027, 4.000, -146.057, -60.608, 64.392
0.565, 1.067, 4.000, -79.163, -89.172, 53.345
0.989, 1.350, 4.000, -15.137, -114.624, 44.189
1.259, 1.558, 4.000, 38.574, -111.023, 22.827
1.131, 1.510, 4.000, 85.938, -59.326, -4.211
0.708, 1.297, 3.400, 119.995, 10.559, -14.221
0.245, 1.049, 2.304, 128.174, 55.420, -9.338
-0.189, 0.849, 1.383, 114.380, 72.754, 6.836
-0.315, 0.859, 0.858, 74.829, 86.304, 34.424
-0.322, 0.916, 0.558, 21.301, 86.121, 72.754
-0.252, 1.062, 0.437, -27.832, 82.825, 100.586
-0.134, 1.151, 0.393, -61.707, 77.759, 115.601
0.012, 1.219, 0.383, -78.613, 76.172, 116.211
0.099, 1.246, 0.355, -78.796, 76.050, 106.812
0.169, 1.247, 0.243, -64.575, 77.515, 88.074
0.225, 1.209, 0.096, -41.443, 79.712, 63.416
0.257, 1.132, -0.064, -17.212, 75.989, 38.330
0.315, 1.022, -0.220, 4.700, 70.923, 14.832
0.350, 0.940, -0.342, 25.024, 61.890, -5.493
0.370, 0.854, -0.422, 46.143, 49.194, -21.179
0.434, 0.764, -0.474, 63.782, 38.696, -31.677
0.481, 0.696, -0.504, 74.890, 27.222, -38.513
0.586, 0.642, -0.540, 81.238, 24.475, -44.250
0.715, 0.602, -0.541, 83.740, 26.306, -46.082
0.831, 0.575, -0.580, 84.839, 17.700, -45.105
0.958, 0.571, -0.661, 87.585, 12.390, -41.504
1.078, 0.594, -0.752, 88.745, 16.541, -34.790
1.164, 0.629, -0.877, 87.158, 23.987, -23.560
1.148, 0.685, -0.987, 83.618, 34.729, -9.460
1.109, 0.753, -1.064, 82.092, 49.133, 7.141
1.040, 0.847, -1.151, 81.543, 63.171, 22.766
1.004, 0.954, -1.244, 80.627, 71.106, 35.583
0.938, 1.078, -1.338, 74.768, 73.120, 44.556
0.875, 1.232, -1.472, 62.195, 71.167, 51.819
0.858, 1.547, -1.732, 20.447, 33.752, 49.133
0.878, 1.629, -1.735, -3.479, 3.174, 33.630
0.932, 1.562, -1.619, -25.146, -28.259, 12.512
0.993, 1.390, -1.396, -48.340, -52.917, -7.874
1.058, 1.194, -1.125, -73.853, -62.927, -24.963
1.081, 0.992, -0.914, -95.886, -55.359, -41.138
1.084, 0.809, -0.811, -107.117, -39.917, -55.603
1.058, 0.659, -0.780, -106.445, -24.109, -68.604
0.996, 0.541, -0.809, -97.778, -9.766, -80.200
0.946, 0.437, -0.856, -86.304, -0.061, -89.905
0.866, 0.309, -0.924, -72.205, 4.883, -96.008
0.778, 0.220, -1.007, -57.800, 7.019, -98.206
0.694, 0.130, -1.157, -45.410, 6.165, -96.802
0.625, 0.070, -1.254, -36.316, -1.404, -90.088
0.589, -0.003, -1.371, -29.236, -12.939, -78.247
0.579, -0.044, -1.473, -23.682, -26.733, -60.608
0.569, -0.058, -1.551, -19.470, -41.443, -41.565
0.539, -0.048, -1.587, -15.259, -57.068, -23.010
0.502, -0.017, -1.624, -10.071, -74.402, -5.493
0.494, 0.042, -1.638, -4.028, -91.248, 12.207
0.287, 0.107, -1.623, 1.099, -122.620, 32.776
0.129, 0.188, -1.520, 6.470, -152.100, 46.692
-0.020, 0.267, -1.361, 11.841, -176.208, 62.622
-0.242, 0.345, -1.037, 15.869, -208.496, 81.360
-0.456, 0.473, -0.578, 17.944, -237.732, 94.727
-0.633, 0.547, -0.013, 13.367, -253.235, 100.708
-0.826, 0.718, 0.874, -14.954, -250.916, 102.661
-0.855, 0.908, 2.323, -85.266, -207.458, 99.854
-0.641, 1.108, 3.381, -154.297, -135.010, 85.022
-0.390, 1.162, 4.000, -161.438, -109.680, 55.420
-0.239, 1.011, 4.000, -140.198, -92.102, 37.476
0.309, 1.217, 4.000, -95.581, -86.426, 46.265
0.820, 1.555, 4.000, -29.053, -62.927, 47.974
1.038, 1.683, 4.000, 38.269, -18.921, 28.931
0.727, 1.544, 4.000, 91.431, 42.603, 9.460
0.282, 1.299, 3.224, 122.314, 104.980, 4.028
-0.211, 1.018, 1.969, 132.996, 132.874, 15.381
-0.417, 0.835, 1.160, 116.699, 139.648, 39.185
-0.609, 0.890, 0.745, 71.350, 138.550, 64.087
-0.514, 1.016, 0.530, 23.804, 115.662, 104.065
-0.391, 1.192, 0.511, -20.569, 104.004, 134.338
-0.271, 1.320, 0.466, -55.908, 112.061, 148.010
-0.171, 1.445, 0.377, -77.148, 124.878, 146.912
-0.085, 1.524, 0.242, -81.543, 130.127, 131.958
-0.034, 1.548, 0.098, -69.824, 128.662, 105.957
0.019, 1.526, -0.017, -46.204, 125.183, 71.106
0.037, 1.452, -0.129, -16.052, 119.202, 32.776
0.047, 1.332, -0.235, 14.160, 112.854, -2.014
0.071, 1.178, -0.333, 40.039, 103.699, -30.334
0.107, 1.025, -0.420, 59.143, 91.980, -53.223
0.154, 0.900, -0.521, 73.242, 79.407, -69.702
0.232, 0.787, -0.639, 81.787, 64.819, -79.468
0.335, 0.681, -0.757, 84.534, 49.744, -84.290
0.427, 0.564, -0.829, 81.970, 35.583, -85.999
0.525, 0.475, -0.909, 73.608, 28.015, -83.435
0.744, 0.431, -0.955, 59.387, 31.006, -77.454
0.832, 0.408, -1.026, 43.701, 17.273, -67.383
0.951, 0.398, -1.099, 35.034, 5.737, -52.551
1.030, 0.418, -1.173, 32.410, 0.916, -37.048
1.114, 0.483, -1.264, 33.630, -0.977, -19.653
1.143, 0.587, -1.338, 37.170, -4.883, -2.686
1.133, 0.725, -1.382, 43.213, -12.939, 12.695
1.132, 0.883, -1.366, 53.528, -24.597, 24.719
1.104, 1.037, -1.330, 66.345, -37.415, 28.809
1.097, 1.133, -1.299, 79.834, -49.377, 28.381
1.103, 1.189, -1.261, 91.187, -60.364, 25.452
1.078, 1.217, -1.205, 99.976, -68.848, 17.700
1.086, 1.220, -1.090, 104.553, -76.172, 7.874
1.106, 1.222, -0.959, 103.027, -80.505, -1.953
1.131, 1.203, -0.821, 93.445, -77.515, -11.780
1.123, 1.178, -0.742, 79.468, -65.247, -23.926
1.071, 1.153, -0.752, 63.232, -46.326, -37.109
0.989, 1.127, -0.827, 44.128, -27.344, -49.683
0.903, 1.073, -0.945, 23.987, -14.465, -60.791
0.816, 0.995, -1.030, 1.953, -11.841, -68.848
0.750, 0.883, -1.043, -24.658, -17.151, -71.167
0.729, 0.775, -1.005, -55.908, -24.536, -65.491
0.721, 0.686, -0.938, -88.928, -32.471, -53.955
0.720, 0.627, -0.855, -119.751, -40.039, -38.818
0.728, 0.607, -0.778, -145.142, -45.288, -23.071
0.734, 0.583, -0.704, -162.170, -51.880, -8.728
0.748, 0.638, -0.599, -170.898, -59.326, 0.122
0.679, 0.600, -0.511, -173.218, -76.538, 17.212
0.653, 0.645, -0.375, -176.697, -85.144, 20.447
0.620, 0.662, -0.273, -176.575, -83.801, 17.395
0.573, 0.676, -0.184, -172.974, -78.308, 15.198
0.498, 0.672, -0.113, -165.344, -73.914, 12.146
0.397, 0.627, -0.064, -152.100, -71.838, 9.644
0.234, 0.558, -0.053, -134.827, -69.580, 7.874
0.034, 0.503, -0.076, -116.577, -67.444, 8.179
-0.172, 0.452, -0.071, -98.206, -68.542, 12.268
-0.380, 0.405, 0.014, -73.914, -75.623, 21.240
-0.547, 0.391, 0.310, -40.894, -88.745, 33.325
-0.630, 0.480, 0.904, 2.197, -97.961, 39.612
-0.548, 0.602, 1.627, 62.927, -93.872, 33.264
-0.406, 0.770, 2.349, 132.690, -78.247, 8.301
-0.206, 0.860, 2.980, 191.833, -60.608, -27.344
-0.015, 0.718, 3.545, 207.214, -42.908, -60.364
0.277, 0.595, 4.000, 159.302, -35.034, -54.871
0.563, 0.559, 4.000, 64.697, -17.212, -10.376
0.764, 0.666, 4.000, -34.058, 21.973, 56.763
0.671, 0.895, 3.732, -99.365, 71.594, 122.437
0.493, 1.101, 2.974, -125.183, 123.535, 165.100
0.165, 1.261, 2.270, -127.991, 163.757, 180.176
-0.093, 1.434, 1.688, -117.004, 183.167, 167.053
-0.210, 1.547, 1.288, -98.938, 182.739, 139.771
-0.251, 1.582, 1.054, -71.533, 168.945, 103.333
-0.241, 1.540, 0.838, -34.912, 153.381, 60.303
-0.182, 1.494, 0.734, 2.136, 151.428, 15.259
-0.297, 1.325, 0.513, 31.738, 137.756, -10.132
-0.313, 1.230, 0.274, 39.673, 125.244, -27.039
-0.298, 1.102, 0.118, 31.921, 125.183, -34.180
-0.187, 1.020, -0.016, 19.043, 122.253, -32.898
-0.102, 0.949, -0.124, 6.287, 108.215, -27.283
-0.040, 0.875, -0.188, -3.174, 92.102, -21.362
0.039, 0.805, -0.262, -8.118, 81.360, -20.813
0.112, 0.785, -0.421, -12.512, 73.364, -25.635
0.179, 0.762, -0.549, -17.456, 61.096, -30.457
0.266, 0.685, -0.699, -26.123, 41.260, -38.574
1.100, 0.542, -1.375, -15.076, 60.364, -48.950
1.172, 0.669, -1.565, 2.319, 65.857, -39.917
1.055, 0.763, -1.801, 36.011, 45.898, -25.818
0.885, 0.849, -1.911, 57.495, 25.635, -13.916
0.822, 0.922, -1.990, 57.068, 6.958, -11.230
0.764, 0.904, -1.969, 49.438, -14.404, -14.221
0.857, 0.991, -1.877, 37.048, -36.865, -21.545
0.911, 0.936, -1.696, 25.391, -55.786, -22.888
0.965, 0.850, -1.519, 7.751, -64.575, -21.484
1.004, 0.757, -1.336, -13.855, -62.561, -21.545
1.039, 0.680, -1.187, -36.804, -54.260, -22.461
1.040, 0.582, -1.078, -57.434, -42.542, -23.865
1.010, 0.484, -1.030, -73.181, -29.724, -26.001
0.947, 0.386, -1.018, -84.595, -18.127, -28.564
0.875, 0.296, -1.013, -92.346, -10.803, -28.992
0.808, 0.213, -0.999, -97.839, -8.850, -26.184
0.756, 0.138, -0.968, -102.295, -8.484, -19.470
0.723, 0.083, -0.948, -105.469, -10.010, -8.545
0.693, 0.054, -0.943, -107.361, -13.000, 6.042
0.671, 0.051, -0.922, -107.727, -16.418, 23.621
0.691, 0.087, -0.913, -105.286, -19.653, 39.978
0.710, 0.102, -0.885, -99.731, -29.297, 57.373
0.793, 0.182, -0.884, -91.309, -39.490, 69.580
0.685, 0.173, -0.881, -77.332, -57.312, 91.064
0.658, 0.214, -0.823, -63.354, -78.430, 100.647
0.648, 0.255, -0.718, -44.983, -89.905, 101.318
0.650, 0.316, -0.631, -25.452, -96.863, 99.487
0.640, 0.394, -0.534, -7.141, -105.103, 96.558
0.596, 0.485, -0.421, 9.277, -112.610, 87.280
0.569, 0.588, -0.301, 24.170, -117.432, 68.787
0.489, 0.676, -0.199, 36.438, -117.065, 41.443
0.295, 0.708, -0.135, 44.189, -112.549, 14.038
0.052, 0.714, -0.033, 45.166, -102.112, -7.446
-0.240, 0.714, 0.126, 39.124, -86.731, -23.682
-0.474, 0.743, 0.370, 18.921, -73.914, -23.926
-0.586, 0.803, 0.888, -12.756, -69.580, -11.780
-0.523, 0.912, 1.582, -41.260, -67.322, 4.822
-0.438, 1.142, 2.509, -54.016, -70.435, 25.818
-0.079, 1.340, 3.211, -30.823, -75.317, 61.523
0.346, 1.698, 3.495, 8.179, -69.214, 93.140
0.703, 2.101, 3.388, 53.101, -42.175, 99.915
0.798, 2.286, 3.078, 97.107, -6.470, 74.707
0.671, 2.179, 2.717, 120.544, 12.817, 42.236
0.410, 1.953, 2.255, 121.643, 18.066, 18.982
0.161, 1.675, 1.772, 111.084, 20.630, 6.348
-0.042, 1.423, 1.399, 91.370, 28.992, 7.446
-0.149, 1.251, 1.209, 64.758, 50.842, 19.714
-0.152, 1.207, 1.105, 37.659, 75.684, 40.039
-0.126, 1.237, 0.969, 17.029, 97.229, 60.486
-0.116, 1.282, 0.776, 3.235, 116.333, 72.815
-0.087, 1.315, 0.613, -4.883, 129.028, 74.280
-0.049, 1.311, 0.471, -5.676, 133.362, 66.040
-0.001, 1.248, 0.335, 1.709, 132.812, 52.124
0.022, 1.171, 0.253, 11.841, 127.441, 35.461
0.059, 1.098, 0.157, 21.118, 122.986, 18.433
0.090, 1.013, 0.028, 28.320, 122.620, 4.578
0.108, 0.937, -0.122, 31.311, 122.253, -5.371
0.102, 0.864, -0.253, 31.006, 119.385, -12.146
0.114, 0.801, -0.367, 29.541, 111.877, -16.113
0.167, 0.752, -0.444, 28.625, 101.624, -16.663
0.261, 0.711, -0.500, 27.039, 90.393, -14.648
0.345, 0.680, -0.536, 25.146, 79.834, -11.475
0.405, 0.683, -0.565, 22.339, 75.195, -7.874
0.472, 0.668, -0.610, 19.287, 74.707, -3.967
0.503, 0.682, -0.667, 17.639, 77.881, 0.000
0.545, 0.699, -0.725, 18.127, 86.853, 3.845
0.558, 0.747, -0.813, 19.348, 92.773, 8.179
0.570, 0.827, -1.025, 20.874, 95.276, 11.475
0.564, 0.945, -1.212, 22.949, 85.693, 10.010
0.591, 1.055, -1.307, 28.320, 64.209, 1.770
0.642, 1.105, -1.317, 36.011, 39.978, -10.315
0.677, 1.120, -1.305, 43.884, 14.893, -21.301
0.724, 1.130, -1.286, 51.819, -3.479, -29.236
0.730, 1.120, -1.312, 57.678, -11.963, -35.645
0.748, 1.141, -1.409, 62.500, -14.465, -42.236
0.712, 1.120, -1.513, 68.420, -18.860, -47.546
0.663, 1.056, -1.581, 73.486, -29.968, -52.063
0.651, 0.941, -1.579, 75.623, -46.265, -54.443
0.663, 0.805, -1.511, 74.402, -60.913, -51.819
0.695, 0.691, -1.419, 69.397, -71.228, -44.861
0.727, 0.604, -1.304, 59.631, -78.552, -34.546
0.779, 0.551, -1.183, 45.105, -81.482, -22.766
0.837, 0.543, -1.062, 28.137, -81.116, -10.864
0.888, 0.560, -0.944, 11.047, -79.773, -1.526
0.942, 0.572, -0.872, -4.272, -72.998, 3.601
0.977, 0.591, -0.821, -18.066, -63.843, 3.662
0.989, 0.602, -0.788, -30.029, -56.641, 1.160
1.003, 0.609, -0.785, -37.598, -50.903, -2.563
1.032, 0.597, -0.792, -39.917, -49.011, -7.385
1.055, 0.563, -0.802, -37.048, -49.744, -15.686
1.058, 0.523, -0.820, -31.860, -50.903, -27.466
1.016, 0.473, -0.843, -25.818, -52.490, -38.757
0.951, 0.411, -0.856, -21.057, -55.359, -48.462
0.845, 0.341, -0.866, -18.372, -59.143, -52.979
0.724, 0.308, -0.874, -19.287, -62.500, -52.124
0.615, 0.298, -0.881, -23.926, -64.209, -47.363
0.563, 0.313, -0.885, -30.090, -63.416, -33.203
0.442, 0.362, -0.865, -41.626, -76.050, -14.893
0.328, 0.417, -0.788, -54.749, -85.876, -8.972
0.180, 0.440, -0.689, -66.711, -88.684, -5.493
0.012, 0.461, -0.553, -80.994, -89.905, -0.122
-0.158, 0.505, -0.346, -98.450, -92.712, 7.751
-0.331, 0.593, -0.037, -117.676, -96.619, 18.066
-0.524, 0.719, 0.359, -140.259, -96.619, 28.870
-0.735, 0.832, 0.811, -163.452, -84.412, 38.452
-0.885, 0.961, 1.345, -176.025, -69.946, 48.584
-0.889, 1.013, 2.035, -174.377, -67.383, 60.242
-0.700, 1.109, 2.917, -153.076, -78.857, 83.496
-0.436, 1.376, 3.766, -102.844, -88.196, 113.831
-0.048, 1.779, 4.000, -27.893, -69.214, 135.254
0.380, 2.192, 4.000, 50.110, -25.452, 139.709
0.575, 2.487, 3.973, 107.483, 16.724, 126.160
0.458, 2.506, 3.182, 127.686, 54.626, 96.558
0.226, 2.269, 2.198, 113.220, 85.571, 62.378
-0.033, 1.990, 1.411, 79.712, 98.999, 34.180
-0.174, 1.731, 0.983, 44.373, 101.257, 16.541
-0.209, 1.514, 0.815, 15.442, 99.670, 9.521
-0.198, 1.381, 0.769, -4.517, 97.351, 10.742
-0.151, 1.336, 0.704, -15.503, 100.342, 16.113
0.791, 0.718, -1.151, 3.113, 29.053, -44.312
0.800, 0.743, -1.240, 13.977, 16.052, -43.640
0.801, 0.757, -1.344, 27.222, 2.380, -41.565
0.796, 0.787, -1.464, 40.894, -8.972, -38.635
0.791, 0.812, -1.583, 53.711, -21.484, -38.208
0.776, 0.819, -1.684, 64.636, -36.072, -39.063
0.758, 0.787, -1.760, 73.364, -51.575, -39.856
0.744, 0.748, -1.793, 79.041, -65.002, -39.307
0.737, 0.707, -1.788, 78.613, -75.500, -36.255
0.761, 0.665, -1.737, 71.106, -85.266, -29.297
0.809, 0.622, -1.618, 56.213, -93.567, -20.325
0.874, 0.585, -1.446, 33.997, -99.548, -10.742
0.931, 0.551, -1.266, 7.324, -103.210, -1.892
0.974, 0.521, -1.112, -23.132, -101.624, 5.798
1.017, 0.496, -0.971, -58.350, -92.834, 12.634
1.075, 0.488, -0.842, -93.262, -80.383, 20.813
1.136, 0.496, -0.742, -119.446, -64.087, 27.588
1.183, 0.499, -0.695, -132.141, -47.607, 28.076
1.188, 0.482, -0.694, -131.287, -35.095, 20.020
1.154, 0.445, -0.710, -119.690, -27.771, 7.568
1.080, 0.399, -0.754, -103.088, -24.170, -5.615
1.021, 0.344, -0.841, -84.839, -21.729, -15.808
0.986, 0.304, -0.957, -66.895, -22.217, -21.484
0.948, 0.282, -1.070, -50.659, -25.818, -23.254
0.912, 0.284, -1.159, -37.354, -32.654, -23.560
0.848, 0.279, -1.234, -25.208, -41.443, -23.560
0.757, 0.274, -1.295, -14.954, -52.063, -25.024
0.621, 0.239, -1.317, -7.446, -67.749, -28.442
0.420, 0.186, -1.265, -1.770, -86.426, -31.250
0.225, 0.141, -1.107, 0.793, -105.713, -31.067
0.075, 0.130, -0.864, 0.488, -120.422, -24.597
-0.095, 0.118, -0.565, -7.141, -132.446, -6.775
-0.284, 0.207, -0.140, -26.184, -138.611, 1.404
-0.515, 0.285, 0.350, -50.659, -120.789, 9.949
-0.860, 0.377, 0.868, -82.458, -80.994, 24.963
-1.180, 0.561, 1.620, -118.835, -38.208, 50.903
-1.214, 0.796, 2.726, -152.283, -16.846, 86.060
-0.751, 1.170, 3.963, -161.621, -35.278, 125.916
-0.153, 1.765, 4.000, -118.896, -75.562, 160.645
0.617, 2.372, 4.000, -28.992, -72.144, 159.790
1.095, 2.710, 4.000, 69.580, -25.269, 114.807
0.891, 2.668, 4.000, 133.667, 26.611, 56.213
0.347, 2.299, 3.594, 148.804, 83.801, 8.911
-0.134, 1.838, 2.332, 132.507, 123.779, -17.334
-0.477, 1.491, 1.452, 106.812, 134.155, -20.386
-0.568, 1.252, 1.018, 81.665, 138.062, -5.859
-0.556, 1.160, 0.853, 52.856, 142.517, 17.700
-0.516, 1.202, 0.759, 24.719, 151.306, 44.678
-0.434, 1.330, 0.661, 3.357, 164.917, 66.162
-0.341, 1.467, 0.524, -11.047, 180.237, 74.707
-0.254, 1.572, 0.327, -19.714, 195.740, 68.604
-0.195, 1.614, 0.138, -19.714, 201.782, 52.002
-0.153, 1.610, -0.025, -11.169, 189.819, 27.466
-0.101, 1.506, -0.169, 3.723, 169.617, -2.258
-0.027, 1.366, -0.263, 19.592, 146.973, -29.663
-0.000, 1.243, -0.335, 31.250, 127.075, -50.354
0.036, 1.124, -0.444, 37.537, 113.586, -62.012
0.078, 1.005, -0.556, 37.476, 101.807, -67.688
0.146, 0.927, -0.618, 32.654, 90.088, -67.749
0.240, 0.871, -0.704, 26.489, 78.308, -62.744
0.301, 0.838, -0.804, 20.325, 65.796, -58.105
0.372, 0.793, -0.868, 15.564, 54.016, -53.833
0.447, 0.786, -0.875, 14.954, 44.617, -51.025
0.511, 0.779, -0.957, 22.278, 46.509, -52.673
0.585, 0.831, -0.989, 30.762, 49.133, -57.495
0.564, 0.918, -1.001, 40.710, 42.297, -64.331
0.531, 0.967, -1.054, 49.438, 41.687, -72.205
0.560, 1.051, -1.131, 55.420, 47.668, -82.458
0.449, 1.057, -1.282, 64.148, 56.641, -100.708
0.357, 1.086, -1.469, 69.397, 59.998, -119.568
0.285, 1.086, -1.696, 67.749, 51.147, -135.193
0.226, 1.040, -1.906, 58.533, 25.330, -150.330
0.156, 0.949, -2.050, 41.504, -15.320, -167.664
0.102, 0.791, -2.124, 13.977, -63.354, -181.580
0.140, 0.553, -2.055, -25.452, -110.291, -182.678
0.260, 0.329, -1.776, -71.960, -154.846, -165.710
0.474, 0.119, -1.344, -110.840, -192.505, -133.789
0.797, -0.022, -0.916, -133.301, -209.595, -95.825
1.146, -0.122, -0.621, -141.052, -201.782, -60.852
1.505, -0.145, -0.431, -134.705, -174.622, -32.959
1.863, -0.231, -0.333, -119.507, -142.944, -3.540
2.068, -0.312, -0.288, -95.032, -111.633, 16.663
2.196, -0.392, -0.223, -65.674, -79.102, 34.973
2.154, -0.412, -0.145, -39.795, -46.387, 55.298
2.032, -0.353, -0.146, -15.320, -8.850, 79.834
1.851, -0.190, -0.250, 8.789, 32.104, 104.919
1.687, 0.039, -0.414, 26.611, 62.134, 125.732
1.561, 0.257, -0.600, 32.227, 80.933, 136.963
1.433, 0.430, -0.797, 30.334, 94.788, 134.766
1.350, 0.551, -0.958, 26.062, 102.539, 122.864
1.271, 0.569, -1.083, 21.912, 101.746, 104.065
1.189, 0.555, -1.141, 15.015, 95.093, 84.106
1.102, 0.538, -1.144, 5.066, 88.806, 65.186
1.009, 0.493, -1.169, -2.075, 85.938, 46.570
0.929, 0.433, -1.200, -5.981, 83.984, 30.579
0.850, 0.383, -1.218, -7.935, 77.026, 18.188
0.773, 0.343, -1.220, -6.836, 64.392, 6.592
0.681, 0.298, -1.221, -2.014, 48.584, -3.784
0.540, 0.251, -1.220, 4.150, 29.419, -11.841
0.371, 0.231, -1.187, 7.141, 7.385, -14.709
0.262, 0.214, -1.082, 5.310, -15.198, -13.916
0.045, 0.267, -0.971, -0.549, -42.969, -11.902
-0.147, 0.278, -0.782, -4.456, -53.528, 1.648
-0.393, 0.334, -0.468, -19.897, -74.341, 12.695
-0.521, 0.463, 0.031, -34.119, -102.966, 31.616
-0.601, 0.666, 0.640, -38.574, -113.159, 45.227
-0.553, 0.935, 1.337, -37.170, -102.722, 51.147
-0.216, 1.303, 2.284, -31.555, -99.182, 55.176
0.345, 1.763, 3.318, -15.564, -106.812, 41.382
0.863, 2.164, 4.000, 23.010, -108.521, -2.563
1.370, 2.320, 4.000, 75.745, -108.948, -68.970
1.519, 2.212, 4.000, 122.986, -95.764, -145.935
1.452, 1.867, 4.000, 153.015, -58.167, -215.027
1.017, 1.376, 3.913, 164.978, -19.104, -241.821
0.485, 0.843, 2.976, 165.466, 18.311, -228.333
-0.033, 0.438, 2.161, 155.334, 36.133, -186.646
-0.346, 0.198, 1.578, 127.441, 42.480, -119.629
-0.385, 0.163, 1.240, 79.834, 62.012, -45.898
-0.374, 0.274, 1.051, 29.846, 94.727, 21.484
2.368, 0.063, -2.209, 15.503, -56.519, -39.795
1.135, 0.551, -1.003, -2.930, -69.092, -22.034
0.767, 0.909, -0.251, -36.865, -30.334, -3.845
0.623, 1.114, -0.149, -48.889, 43.762, -14.954
0.980, 0.830, -0.884, -22.888, 62.622, -23.315
1.028, 0.686, -1.527, 9.094, 45.898, -31.799
0.968, 0.641, -1.914, 21.606, 22.583, -43.457
0.958, 0.602, -2.047, 3.662, 4.333, -42.969
0.918, 0.510, -2.019, -24.414, -12.390, -35.095
0.823, 0.433, -1.900, -44.983, -22.156, -25.146
0.750, 0.343, -1.795, -57.251, -26.672, -14.832
0.718, 0.257, -1.671, -64.087, -30.884, -4.395
0.739, 0.163, -1.538, -68.604, -39.001, 7.996
0.813, 0.121, -1.399, -70.129, -46.814, 24.231
0.896, 0.106, -1.257, -68.604, -51.086, 39.612
0.989, 0.106, -1.130, -61.523, -50.293, 52.307
1.045, 0.114, -1.017, -46.570, -45.898, 61.890
1.078, 0.116, -0.917, -25.513, -40.710, 66.406
1.066, 0.113, -0.837, -3.052, -35.889, 65.979
1.022, 0.093, -0.794, 16.357, -30.212, 64.087
0.973, 0.084, -0.734, 29.602, -24.292, 63.416
0.948, 0.102, -0.695, 35.889, -17.639, 63.965
0.890, 0.126, -0.731, 33.875, -9.277, 65.491
0.874, 0.151, -0.806, 25.330, 1.221, 67.383
0.856, 0.163, -0.878, 14.038, 10.254, 70.862
0.874, 0.181, -0.927, 2.258, 14.648, 74.463
0.881, 0.246, -0.967, -5.005, 17.090, 73.364
0.811, 0.237, -0.978, -8.057, 13.855, 72.144
0.742, 0.225, -0.959, -10.254, 9.155, 62.683
0.669, 0.184, -0.954, -9.583, 6.287, 57.495
0.608, 0.161, -0.941, -8.911, 0.671, 60.303
0.525, 0.161, -0.928, -7.019, -8.484, 66.528
0.398, 0.188, -0.909, -2.930, -22.461, 72.449
0.250, 0.225, -0.845, 1.465, -40.344, 76.782
0.101, 0.280, -0.704, 3.906, -60.303, 79.041
-0.072, 0.372, -0.469, 1.770, -78.552, 80.017
-0.248, 0.521, -0.135, -7.507, -91.980, 81.787
-0.330, 0.724, 0.316, -23.193, -97.412, 85.022
-0.304, 1.046, 0.962, -40.344, -85.632, 83.557
-0.145, 1.355, 1.628, -39.307, -63.538, 70.618
0.195, 1.599, 2.317, -11.353, -54.260, 46.448
0.487, 1.722, 2.994, 29.663, -78.735, 13.428
0.800, 1.828, 3.715, 69.641, -114.990, -17.212
1.141, 1.921, 4.000, 97.229, -119.385, -42.297
1.263, 1.889, 4.000, 116.516, -85.510, -65.979
1.079, 1.693, 3.790, 124.023, -37.781, -82.520
0.680, 1.404, 3.064, 113.342, 7.568, -82.947
0.286, 1.079, 2.242, 92.590, 47.180, -69.031
-0.034, 0.900, 1.607, 67.322, 78.186, -38.391
-0.197, 0.825, 1.227, 30.823, 101.563, -2.502
-0.286, 0.796, 0.940, -8.606, 120.544, 32.104
-0.276, 0.817, 0.721, -44.067, 133.057, 64.636
-0.240, 0.863, 0.545, -68.787, 139.099, 87.463
-0.167, 0.918, 0.392, -78.491, 141.968, 96.863
-0.099, 0.963, 0.234, -75.439, 140.808, 94.177
-0.030, 1.008, 0.094, -62.927, 135.742, 83.069
0.025, 1.034, -0.044, -44.495, 127.441, 65.247
0.065, 1.010, -0.204, -24.536, 116.943, 43.518
0.107, 0.991, -0.316, -6.775, 105.225, 22.461
0.135, 0.951, -0.424, 6.226, 91.003, 3.357
0.149, 0.884, -0.546, 15.198, 77.637, -13.428
0.176, 0.798, -0.681, 19.348, 67.261, -26.001
0.224, 0.717, -0.797, 18.921, 60.303, -31.738
0.221, 0.671, -0.889, 14.587, 51.636, -30.823
0.341, 0.646, -0.978, 8.606, 53.467, -28.015
0.418, 0.648, -1.069, -1.526, 49.561, -21.179
0.466, 0.645, -1.173, -11.475, 35.645, -10.925
0.571, 0.662, -1.260, -16.785, 28.809, -0.732
0.667, 0.724, -1.315, -19.470, 23.437, 9.705
0.732, 0.810, -1.359, -18.066, 18.555, 18.433
0.780, 0.865, -1.457, -14.771, 18.921, 24.353
0.816, 0.915, -1.564, -11.108, 21.912, 30.090
0.832, 0.965, -1.655, -7.935, 25.208, 35.889
0.834, 1.001, -1.743, -5.127, 27.954, 41.504
0.825, 1.031, -1.835, -3.723, 29.297, 45.593
0.804, 1.068, -1.913, -6.348, 28.931, 47.913
0.782, 1.091, -1.956, -13.733, 23.132, 48.462
0.797, 1.094, -1.957, -27.405, 11.658, 46.204
0.840, 1.093, -1.922, -44.861, -1.953, 39.978
0.874, 1.044, -1.825, -63.171, -15.015, 26.489
0.892, 0.946, -1.674, -78.735, -27.466, 7.141
0.895, 0.825, -1.484, -88.440, -36.133, -15.137
0.838, 0.673, -1.295, -90.454, -41.016, -39.124
0.801, 0.513, -1.158, -84.656, -38.879, -60.486
0.793, 0.377, -1.084, -72.571, -34.119, -74.951
0.774, 0.246, -1.056, -57.434, -28.748, -85.571
0.766, 0.135, -1.058, -39.001, -22.034, -93.994
0.744, 0.046, -1.077, -19.897, -16.663, -97.656
0.727, -0.028, -1.110, -3.967, -11.719, -96.741
0.702, -0.092, -1.139, 9.277, -7.812, -90.149
0.686, -0.131, -1.151, 20.508, -4.883, -77.881
0.652, -0.133, -1.153, 30.579, -2.991, -63.171
0.612, -0.087, -1.162, 40.283, -1.343, -48.828
0.590, -0.030, -1.220, 49.622, 1.709, -36.072
0.596, 0.024, -1.329, 57.495, 4.150, -27.527
0.568, 0.073, -1.415, 63.171, 2.136, -24.414
0.476, 0.101, -1.473, 66.345, -2.563, -25.696
0.382, 0.110, -1.523, 65.369, -8.728, -27.039
0.267, 0.095, -1.549, 60.242, -19.409, -27.710
0.114, 0.070, -1.513, 52.063, -36.194, -27.039
-0.029, 0.047, -1.389, 40.588, -60.791, -22.583
-0.186, 0.042, -1.175, 26.917, -90.210, -15.747
-0.370, 0.045, -0.871, 10.254, -121.155, -5.310
-0.563, 0.080, -0.493, -9.521, -148.804, 12.878
-0.699, 0.197, 0.022, -37.415, -165.649, 39.429
-0.795, 0.400, 0.715, -74.524, -166.382, 67.139
-0.777, 0.606, 1.380, -114.685, -145.142, 90.820
-0.617, 0.820, 1.900, -135.742, -113.831, 112.061
-0.373, 1.172, 2.445, -115.967, -87.830, 122.559
-0.022, 1.511, 2.768, -62.378, -79.346, 118.896
0.410, 1.789, 2.908, 4.272, -90.515, 98.694
0.890, 2.090, 3.125, 59.387, -112.366, 70.618
1.268, 2.252, 3.484, 103.271, -126.404, 38.513
1.346, 2.219, 3.781, 134.277, -117.493, 7.202
1.221, 2.008, 3.637, 136.475, -72.693, -10.193
0.953, 1.689, 2.939, 109.924, -8.606, -8.118
0.578, 1.385, 2.176, 68.848, 45.837, 10.010
0.293, 1.231, 1.620, 27.588, 85.266, 37.964
0.158, 1.223, 1.328, -7.751, 113.342, 68.420
0.758, 0.456, -1.566, 8.057, 16.663, -33.936
0.812, 0.402, -1.731, 15.503, 6.958, -38.574
0.834, 0.356, -1.823, 21.179, -5.859, -37.048
0.864, 0.350, -1.854, 23.437, -15.137, -28.320
0.903, 0.385, -1.861, 23.560, -17.944, -13.306
0.915, 0.464, -1.826, 24.963, -17.456, 4.456
0.919, 0.577, -1.776, 30.212, -16.357, 20.142
0.916, 0.717, -1.722, 38.208, -10.742, 29.114
0.934, 0.841, -1.707, 45.105, -3.540, 29.602
0.946, 0.931, -1.776, 48.218, 5.005, 22.278
0.895, 0.972, -1.844, 45.532, 14.893, 9.888
0.818, 0.965, -1.865, 36.682, 21.301, -2.380
0.761, 0.944, -1.839, 23.560, 23.132, -12.939
0.707, 0.887, -1.767, 7.996, 24.658, -24.231
0.633, 0.802, -1.665, -6.653, 27.649, -36.743
0.547, 0.689, -1.572, -17.883, 33.569, -48.401
0.477, 0.568, -1.531, -26.733, 41.077, -55.908
0.461, 0.471, -1.554, -32.471, 52.307, -58.594
0.448, 0.407, -1.631, -35.095, 61.523, -59.265
0.425, 0.339, -1.689, -34.790, 62.866, -57.739
0.428, 0.285, -1.696, -32.715, 56.580, -52.856
0.437, 0.237, -1.695, -27.283, 46.204, -46.692
0.474, 0.209, -1.708, -18.677, 35.217, -41.809
0.510, 0.192, -1.733, -7.751, 22.156, -39.551
0.526, 0.167, -1.752, 3.113, 5.737, -39.429
0.515, 0.140, -1.742, 12.085, -12.207, -38.391
0.460, 0.116, -1.700, 17.029, -32.898, -34.485
0.371, 0.097, -1.612, 18.616, -54.260, -26.794
0.262, 0.103, -1.440, 15.320, -77.820, -15.320
0.138, 0.134, -1.192, 7.507, -102.966, -0.977
0.016, 0.182, -0.887, -3.906, -126.099, 14.404
-0.147, 0.229, -0.572, -15.625, -143.921, 28.870
-0.285, 0.295, -0.261, -26.672, -151.917, 46.021
-0.470, 0.400, 0.031, -45.776, -151.306, 65.613
-0.621, 0.506, 0.316, -70.129, -134.216, 80.505
-0.773, 0.620, 0.737, -90.881, -116.272, 97.290
-0.825, 0.747, 1.259, -99.487, -100.220, 113.647
-0.767, 0.991, 1.706, -90.576, -79.895, 128.296
-0.548, 1.333, 2.090, -55.603, -66.406, 136.475
-0.209, 1.739, 2.428, 1.953, -67.261, 127.075
0.263, 2.114, 2.667, 63.354, -78.796, 99.426
0.814, 2.404, 3.003, 106.262, -94.971, 59.143
1.262, 2.534, 3.248, 120.422, -95.703, 17.822
1.430, 2.377, 3.405, 112.000, -73.608, -17.273
1.273, 2.067, 3.287, 91.797, -37.903, -40.833
0.961, 1.696, 2.758, 60.120, 9.399, -44.434
0.627, 1.354, 2.083, 28.137, 51.758, -29.541
0.343, 1.179, 1.624, 1.526, 81.360, -2.747
0.198, 1.149, 1.411, -18.555, 103.638, 28.992
0.133, 1.176, 1.280, -27.832, 116.943, 55.786
0.091, 1.253, 1.177, -25.513, 123.901, 71.899
0.068, 1.324, 1.058, -16.602, 128.784, 76.965
0.032, 1.372, 0.914, -7.263, 133.728, 68.726
-0.018, 1.345, 0.723, -0.366, 137.573, 49.072
-0.018, 1.257, 0.500, 4.517, 138.672, 28.198
-0.079, 1.103, 0.344, 6.104, 140.076, 11.841
-0.119, 0.964, 0.157, 3.967, 138.672, -5.615
-0.139, 0.829, -0.053, 1.587, 132.874, -15.503
-0.146, 0.682, -0.262, -1.343, 123.291, -16.113
-0.116, 0.588, -0.442, -6.165, 111.877, -10.071
-0.025, 0.554, -0.540, -13.611, 98.267, -1.404
0.063, 0.527, -0.655, -22.766, 86.548, 9.033
0.108, 0.518, -0.766, -32.166, 77.454, 20.630
0.225, 0.533, -0.864, -41.931, 75.867, 28.809
0.286, 0.547, -0.992, -51.758, 70.496, 37.354
0.390, 0.566, -1.145, -57.495, 65.552, 44.617
0.491, 0.574, -1.333, -57.068, 58.533, 46.204
0.539, 0.579, -1.510, -50.903, 48.523, 45.105
0.560, 0.608, -1.638, -41.504, 37.720, 43.701
0.573, 0.652, -1.723, -29.419, 26.184, 41.565
0.589, 0.732, -1.815, -13.611, 13.672, 36.926
0.577, 0.837, -1.925, 5.615, 5.249, 27.405
0.582, 0.908, -2.075, 25.879, -1.160, 12.878
0.561, 0.967, -2.214, 44.189, -10.254, -6.226
0.482, 1.000, -2.282, 62.256, -24.231, -29.663
0.425, 1.002, -2.295, 79.346, -41.199, -52.917
0.361, 0.955, -2.298, 91.309, -55.725, -73.059
0.287, 0.895, -2.242, 96.619, -65.125, -87.036
0.255, 0.805, -2.158, 94.849, -71.350, -92.102
0.277, 0.729, -2.007, 85.022, -75.195, -88.257
0.359, 0.660, -1.864, 62.317, -74.951, -77.820
0.434, 0.582, -1.766, 26.978, -66.467, -63.904
0.443, 0.496, -1.648, -18.982, -50.720, -46.997
0.450, 0.447, -1.536, -71.777, -28.625, -27.405
0.499, 0.429, -1.497, -116.577, -1.282, -11.658
0.530, 0.420, -1.467, -144.287, 23.193, -4.822
0.452, 0.404, -1.427, -152.588, 36.621, -4.150
0.429, 0.391, -1.436, -143.677, 46.753, -7.446
0.423, 0.385, -1.510, -122.925, 52.856, -16.357
0.391, 0.356, -1.607, -93.506, 52.795, -32.104
0.346, 0.310, -1.714, -62.195, 47.668, -52.002
0.281, 0.250, -1.807, -33.997, 35.095, -71.167
0.217, 0.189, -1.859, -9.949, 15.930, -87.524
0.153, 0.114, -1.857, 10.254, -8.789, -100.281
0.106, 0.031, -1.822, 27.222, -36.743, -107.544
0.056, -0.049, -1.787, 40.283, -65.369, -109.375
0.001, -0.137, -1.708, 48.584, -96.130, -105.225
-0.134, -0.249, -1.588, 50.232, -128.418, -93.262
-0.248, -0.332, -1.381, 41.077, -158.020, -69.092
-0.310, -0.323, -1.034, 25.452, -182.678, -36.316
-0.361, -0.269, -0.646, 10.010, -200.378, -2.686
-0.418, -0.137, -0.249, -3.967, -208.740, 30.823
-0.483, 0.048, 0.111, -20.935, -203.979, 63.232
-0.549, 0.236, 0.436, -42.786, -187.683, 92.957
-0.627, 0.401, 0.726, -64.880, -164.368, 119.080
-0.673, 0.589, 1.041, -79.346, -141.907, 140.808
-0.695, 0.808, 1.416, -79.407, -125.610, 157.227
-0.608, 1.120, 1.911, -61.340, -113.586, 162.659
-0.242, 1.492, 2.405, -28.564, -105.469, 160.950
0.423, 2.013, 2.943, 16.113, -112.549, 147.827
1.204, 2.532, 3.598, 80.200, -134.705, 111.023
1.773, 2.855, 4.000, 139.282, -154.663, 49.744
2.163, 2.847, 4.000, 160.522, -138.306, -20.203
2.066, 2.387, 3.954, 139.038, -93.628, -41.199
1.592, 1.955, 3.261, 86.548, -17.212, -17.578
1.148, 1.625, 2.428, 28.442, 64.514, 13.123
0.735, 1.445, 1.783, -10.071, 116.150, 35.889
0.438, 1.354, 1.476, -29.724, 143.372, 56.213
0.239, 1.353, 1.429, -43.457, 160.645, 76.355
-0.076, 1.332, 1.222, -54.688, 171.448, 101.013
-0.192, 1.298, 0.937, -52.307, 185.181, 93.811
-0.264, 1.283, 0.693, -49.011, 191.284, 82.642
-0.288, 1.303, 0.553, -42.603, 186.951, 68.481
-0.297, 1.297, 0.469, -32.532, 178.223, 49.255
-0.314, 1.250, 0.381, -21.667, 170.959, 29.053
-0.345, 1.160, 0.249, -13.855, 166.321, 10.864
-0.375, 1.030, 0.107, -10.803, 161.499, -3.662
-0.373, 0.930, -0.032, -9.705, 154.480, -13.367
-0.425, 0.787, -0.133, -6.531, 145.203, -17.334
-0.414, 0.718, -0.245, -2.563, 135.193, -20.996
-0.380, 0.653, -0.362, 2.197, 125.793, -25.024
-0.328, 0.595, -0.508, 6.042, 115.234, -22.522
-0.264, 0.565, -0.668, 7.446, 107.117, -18.127
-0.189, 0.548, -0.832, 7.080, 94.177, -7.874
-0.102, 0.571, -1.003, 7.568, 82.947, 1.892
-0.030, 0.614, -1.160, 7.385, 74.829, 9.949
0.030, 0.686, -1.267, 5.554, 66.345, 17.700
0.145, 0.773, -1.345, 4.883, 55.298, 23.315
0.202, 0.886, -1.393, 6.042, 48.340, 21.973
0.259, 1.001, -1.454, 8.240, 46.570, 15.381
0.276, 1.093, -1.521, 14.099, 47.546, 1.831
0.275, 1.162, -1.623, 28.870, 51.025, -19.470
0.239, 1.256, -1.779, 51.880, 56.458, -49.683
0.134, 1.349, -2.000, 80.933, 63.293, -89.661
-0.083, 1.416, -2.268, 108.704, 68.481, -135.010
-0.382, 1.479, -2.569, 128.418, 69.946, -180.176
-0.544, 1.358, -3.132, 142.273, 66.040, -217.590
-0.557, 1.193, -3.602, 147.461, 44.128, -238.708
-0.460, 0.921, -3.633, 136.902, -15.930, -242.798
-0.272, 0.629, -3.161, 114.258, -104.492, -231.873
-0.101, 0.364, -2.487, 78.613, -176.331, -203.552
0.097, 0.216, -1.937, 26.611, -206.482, -162.537
0.296, 0.076, -1.520, -31.311, -207.092, -116.882
0.457, 0.017, -1.226, -92.651, -192.383, -67.932
0.639, 0.035, -0.992, -151.001, -163.635, -22.705
0.777, 0.102, -0.867, -197.266, -125.854, 12.756
0.853, 0.160, -0.806, -224.548, -85.510, 37.415
0.921, 0.157, -0.737, -229.309, -49.255, 51.514
0.903, 0.135, -0.729, -219.238, -22.095, 61.279
0.900, 0.125, -0.773, -203.796, 3.418, 69.397
0.897, 0.135, -0.861, -182.800, 24.231, 72.510
0.895, 0.164, -0.962, -156.921, 35.034, 72.449
0.887, 0.195, -1.029, -129.578, 36.621, 68.481
0.877, 0.229, -1.093, -101.501, 33.325, 60.913
0.851, 0.275, -1.154, -73.914, 26.672, 49.500
0.762, 0.296, -1.192, -46.143, 16.602, 34.363
0.649, 0.304, -1.230, -19.104, 5.981, 19.104
0.543, 0.300, -1.285, 6.042, -5.981, 6.653
0.407, 0.290, -1.323, 31.311, -20.630, -2.258
0.265, 0.301, -1.354, 56.274, -37.048, -7.141
0.147, 0.297, -1.398, 79.346, -55.237, -9.216
0.023, 0.298, -1.416, 95.886, -77.393, -12.268
-0.096, 0.296, -1.341, 100.525, -103.577, -12.085
-0.209, 0.282, -1.190, 86.609, -131.104, -7.568
-0.326, 0.264, -0.931, 54.626, -155.151, 0.977
-0.445, 0.268, -0.581, 9.155, -173.584, 15.320
-0.525, 0.328, -0.193, -37.476, -185.608, 35.156
-0.640, 0.419, 0.223, -77.393, -190.552, 59.448
-0.712, 0.522, 0.684, -104.309, -187.500, 86.670
-0.801, 0.634, 1.186, -111.328, -178.650, 111.389
-0.843, 0.802, 1.793, -95.337, -162.781, 132.690
-0.772, 1.020, 2.341, -64.453, -131.775, 150.696
-0.479, 1.299, 2.703, -32.288, -91.064, 167.786
-0.027, 1.671, 2.884, 7.996, -64.026, 178.772
0.387, 2.110, 2.900, 61.035, -54.871, 177.979
0.742, 2.449, 2.762, 103.455, -51.697, 166.321
1.104, 2.536, 2.535, 105.713, -46.143, 145.630
1.271, 2.572, 2.560, 72.205, -36.316, 126.587
1.259, 2.534, 2.451, 36.194, -6.287, 115.479
1.158, 2.465, 2.068, 6.592, 40.649, 102.661
0.896, 2.318, 1.657, -14.893, 81.848, 82.581
0.621, 2.116, 1.314, -31.494, 108.337, 57.983
0.359, 1.883, 1.093, -41.199, 119.324, 35.034
0.102, 1.668, 0.978, -39.307, 120.422, 13.000
-0.110, 1.492, 0.871, -28.748, 119.019, -4.395
-0.233, 1.336, 0.769, -16.357, 116.577, -17.395
-0.316, 1.208, 0.700, -4.822, 112.793, -27.222
-0.362, 1.147, 0.682, 5.554, 109.375, -33.875
-0.352, 1.126, 0.675, 13.550, 108.154, -38.818
-0.349, 1.107, 0.626, 18.738, 109.497, -44.556
-0.347, 1.099, 0.555, 21.973, 111.633, -51.697
-0.353, 1.070, 0.442, 21.790, 110.352, -59.509
-0.370, 0.986, 0.329, 16.296, 104.675, -65.308
-0.367, 0.872, 0.232, 8.850, 99.854, -68.237
-0.374, 0.781, 0.135, 1.343, 97.717, -67.139
-0.351, 0.710, 0.022, -3.784, 95.581, -61.096
-0.297, 0.646, -0.083, -5.920, 91.431, -50.598
-0.264, 0.599, -0.216, -4.822, 85.632, -37.842
-0.126, 0.556, -0.363, -1.770, 82.336, -23.499
-0.035, 0.570, -0.512, -0.549, 73.914, -11.047
0.065, 0.597, -0.660, 0.854, 64.636, 0.244
0.217, 0.640, -0.794, 3.113, 62.866, 11.047
0.346, 0.691, -0.938, 3.967, 60.974, 17.517
0.504, 0.733, -1.089, 5.310, 58.716, 19.531
0.638, 0.756, -1.225, 6.531, 58.044, 18.127
0.725, 0.756, -1.342, 4.700, 62.134, 13.428
0.812, 0.751, -1.418, 1.465, 63.782, 7.141
0.843, 0.748, -1.450, 3.723, 61.584, -0.854
0.863, 0.742, -1.495, 14.404, 59.143, -11.597
0.870, 0.766, -1.551, 32.898, 57.190, -26.489
0.839, 0.768, -1.644, 55.237, 57.495, -45.410
0.757, 0.754, -1.771, 76.294, 56.946, -64.697
0.648, 0.738, -1.980, 92.896, 53.894, -80.566
0.511, 0.733, -2.182, 100.159, 45.349, -89.233
0.331, 0.688, -2.300, 97.534, 28.748, -88.318
0.176, 0.658, -2.320, 85.876, 7.141, -73.853
0.053, 0.679, -2.254, 64.697, -12.146, -46.509
-0.029, 0.734, -2.149, 36.987, -22.339, -13.306
-0.030, 0.792, -2.072, 8.423, -23.071, 19.714
-0.013, 0.845, -2.009, -15.808, -21.240, 47.180
-0.016, 0.882, -1.940, -34.546, -21.729, 64.880
0.015, 0.898, -1.835, -49.622, -23.132, 73.303
0.065, 0.889, -1.725, -60.181, -24.475, 71.289
0.072, 0.863, -1.599, -63.171, -27.222, 61.646
0.102, 0.820, -1.508, -58.411, -28.687, 46.997
0.120, 0.766, -1.482, -47.668, -30.518, 30.212
0.134, 0.719, -1.506, -33.020, -29.602, 11.169
0.129, 0.676, -1.578, -16.479, -28.931, -7.507
-0.732, 1.078, 2.106, -85.205, -154.724, 112.854
-0.485, 1.353, 2.442, -46.143, -149.475, 116.211
-0.233, 1.627, 2.637, 0.549, -140.137, 110.718
0.020, 1.876, 2.747, 43.030, -129.944, 98.572
0.431, 2.140, 2.698, 77.209, -119.568, 78.613
0.634, 2.170, 2.420, 95.581, -116.699, 62.195
1.000, 2.180, 2.279, 84.595, -105.042, 31.921
1.156, 2.184, 2.387, 59.082, -97.046, 24.902
1.234, 2.132, 2.433, 28.381, -66.162, 21.057
1.167, 2.067, 2.320, 2.502, -18.005, 15.869
0.947, 1.956, 2.119, -10.986, 31.555, 6.775
0.632, 1.787, 1.873, -16.541, 74.524, -4.456
0.367, 1.617, 1.623, -16.357, 111.816, -11.169
0.127, 1.499, 1.425, -12.146, 131.165, -13.306
-0.054, 1.440, 1.314, -3.296, 134.766, -16.907
-0.187, 1.421, 1.296, 10.437, 130.005, -22.644
-0.331, 1.414, 1.286, 30.212, 122.864, -29.663
-0.472, 1.404, 1.331, 50.659, 115.356, -34.302
-0.432, 1.378, 1.276, 61.890, 112.488, -35.461
-0.441, 1.339, 1.208, 51.270, 123.291, -37.292
-0.465, 1.247, 0.978, 26.489, 139.526, -37.415
-0.435, 1.115, 0.688, 3.113, 157.593, -33.508
-0.398, 1.056, 0.374, -10.071, 173.096, -27.527
-0.399, 0.909, 0.150, -13.062, 176.392, -19.348
-0.364, 0.822, -0.048, -15.686, 169.678, -13.550
-0.331, 0.731, -0.238, -18.860, 161.316, -8.606
-0.226, 0.661, -0.415, -23.743, 152.222, 0.671
-0.082, 0.620, -0.589, -29.175, 138.977, 13.489
0.027, 0.600, -0.758, -31.067, 123.230, 26.001
0.162, 0.554, -0.921, -27.161, 108.154, 39.063
0.269, 0.559, -1.037, -18.066, 93.201, 52.734
0.378, 0.602, -1.128, -5.005, 81.177, 65.247
0.403, 0.683, -1.219, 10.803, 72.510, 72.754
0.467, 0.779, -1.225, 28.748, 71.594, 75.684
0.522, 0.827, -1.190, 46.692, 52.917, 77.759
0.601, 0.914, -1.137, 71.838, 29.968, 75.928
0.571, 0.990, -1.100, 100.403, 18.616, 64.209
0.597, 1.061, -1.106, 123.596, 14.587, 50.781
0.665, 1.091, -1.154, 135.681, 13.062, 37.231
0.749, 1.088, -1.279, 135.437, 14.038, 18.616
0.790, 1.064, -1.505, 120.239, 19.226, -4.456
0.708, 0.986, -1.732, 85.571, 30.334, -25.879
0.659, 0.928, -1.876, 42.725, 38.757, -39.795
0.579, 0.915, -1.969, 4.517, 49.255, -51.208
0.404, 0.960, -1.984, -24.536, 70.740, -65.552
0.265, 0.946, -2.119, -38.818, 100.586, -83.679
0.108, 0.902, -2.267, -29.846, 124.634, -105.774
0.070, 0.776, -2.470, -5.859, 125.793, -128.174
0.142, 0.613, -2.535, 23.743, 93.872, -146.118
0.167, 0.374, -2.422, 53.955, 38.635, -158.264
0.196, 0.142, -2.163, 71.960, -14.648, -153.381
0.256, -0.023, -1.924, 73.975, -50.415, -130.310
0.290, -0.147, -1.683, 59.937, -65.735, -92.285
0.317, -0.085, -1.477, 35.645, -65.979, -43.762
0.379, 0.072, -1.327, 14.587, -55.603, 2.869
0.403, 0.292, -1.304, 1.221, -40.039, 43.457
0.445, 0.545, -1.374, -8.301, -26.428, 76.538
0.442, 0.826, -1.434, -14.160, -21.057, 97.961
0.415, 1.095, -1.484, -15.869, -21.179, 106.506
0.402, 1.277, -1.547, -15.320, -25.818, 103.516
0.375, 1.397, -1.586, -11.841, -33.264, 90.515
0.320, 1.444, -1.600, -7.935, -44.922, 72.876
0.275, 1.447, -1.566, -8.606, -62.866, 53.955
0.245, 1.399, -1.496, -12.695, -80.994, 32.593
0.196, 1.323, -1.423, -17.944, -96.985, 7.324
0.188, 1.237, -1.275, -21.240, -111.816, -13.184
0.011, 1.065, -1.149, -29.663, -147.156, -25.269
-0.070, 0.844, -0.951, -40.344, -166.321, -46.082
-0.164, 0.674, -0.741, -52.551, -169.983, -57.922
-0.387, 0.521, -0.529, -71.289, -178.101, -56.335
-0.546, 0.452, -0.320, -93.323, -190.613, -42.725
-0.797, 0.464, -0.069, -117.432, -198.303, -21.851
-1.082, 0.457, 0.191, -141.113, -202.698, 4.395
-1.290, 0.503, 0.480, -158.020, -211.121, 37.659
-1.430, 0.589, 0.900, -164.551, -222.900, 75.134
-1.426, 0.810, 1.571, -158.508, -233.765, 111.084
-1.295, 1.157, 2.506, -137.634, -228.455, 133.850
-0.918, 1.475, 3.282, -91.125, -203.125, 140.320
-0.391, 1.890, 3.631, -13.123, -172.485, 123.169
0.138, 2.205, 3.656, 82.336, -152.710, 71.655
0.534, 2.294, 3.614, 168.518, -148.865, 8.789
0.793, 2.062, 3.476, 205.139, -142.822, -40.588
0.990, 1.825, 3.578, 178.650, -128.906, -54.810
1.050, 1.710, 3.504, 114.380, -87.524, -39.124
0.893, 1.574, 3.102, 43.274, -23.987, -22.766
0.614, 1.438, 2.580, -10.681, 35.828, -13.000
0.295, 1.243, 2.105, -40.649, 84.351, -11.230
-0.049, 1.056, 1.741, -49.194, 116.943, -9.338
-0.255, 0.953, 1.569, -44.250, 136.780, 3.784
-0.427, 0.919, 1.432, -38.025, 147.217, 10.681
-0.541, 0.906, 1.298, -25.330, 151.001, 20.203
-0.592, 0.962, 1.136, -4.333, 145.020, 30.212
-0.605, 1.016, 1.166, 15.442, 148.010, 31.677
-0.538, 1.072, 1.142, 27.832, 158.142, 25.269
-0.552, 1.120, 1.016, 31.189, 171.936, 4.883
-0.520, 1.070, 0.780, 31.494, 185.730, -16.113
-0.557, 0.989, 0.490, 27.649, 190.552, -31.067
-0.602, 0.907, 0.160, 20.569, 186.401, -38.391
-0.609, 0.823, -0.120, 10.986, 176.636, -39.551
-0.508, 0.753, -0.347, 1.526, 161.499, -33.630
-0.287, 0.692, -0.515, -6.897, 140.015, -21.301
-0.148, 0.653, -0.779, -19.409, 104.370, -9.094
0.049, 0.656, -0.881, -32.898, 84.778, 1.465
0.279, 0.625, -0.951, -38.391, 73.669, 15.442
0.406, 0.628, -1.029, -42.053, 55.786, 27.588
0.563, 0.694, -1.063, -43.030, 42.542, 34.607
0.744, 0.770, -1.120, -39.185, 30.945, 38.452
0.958, 0.815, -1.158, -28.198, 20.813, 38.574
1.074, 0.849, -1.153, -6.653, 15.198, 30.579
1.142, 0.861, -1.145, 20.569, 16.113, 16.907
1.213, 0.909, -1.191, 47.485, 23.987, 1.709
1.215, 0.912, -1.328, 71.777, 38.269, -17.700
1.199, 0.917, -1.534, 85.083, 55.725, -40.344
1.070, 0.888, -1.800, 83.740, 72.693, -62.378
0.906, 0.846, -2.010, 69.214, 89.050, -79.712
0.729, 0.829, -2.207, 48.340, 101.868, -89.478
0.498, 0.880, -2.432, 28.931, 117.126, -95.825
0.251, 0.915, -2.716, 17.639, 138.550, -98.083
0.102, 0.844, -2.943, 14.160, 149.841, -93.384
0.076, 0.449, -2.824, 4.089, 81.177, -58.105
0.175, 0.305, -2.455, -13.367, 24.414, -24.292
0.258, 0.267, -2.073, -35.400, -15.747, 11.963
0.367, 0.347, -1.800, -57.129, -31.860, 45.532
0.479, 0.439, -1.640, -71.350, -31.860, 69.214
0.556, 0.525, -1.523, -72.632, -26.428, 79.773
0.595, 0.603, -1.440, -60.547, -19.714, 78.247
0.596, 0.658, -1.426, -36.133, -13.245, 67.871
0.577, 0.698, -1.450, -5.005, -8.118, 51.086
0.529, 0.730, -1.503, 26.550, -6.714, 31.189
0.436, 0.751, -1.587, 54.199, -8.301, 11.108
0.342, 0.752, -1.682, 70.618, -13.733, -5.127
0.220, 0.762, -1.813, 73.486, -23.621, -17.822
0.078, 0.773, -1.912, 65.796, -38.940, -27.710
-0.051, 0.723, -1.894, 51.086, -66.711, -28.320
-0.209, 0.671, -1.795, 27.771, -107.239, -31.067
-0.322, 0.562, -1.595, 2.319, -135.437, -37.842
-0.447, 0.449, -1.322, -26.855, -158.752, -37.415
-0.580, 0.349, -0.975, -57.129, -183.289, -31.189
-0.849, 0.282, -0.521, -82.520, -208.008, -19.226
-0.961, 0.256, 0.003, -98.511, -232.727, 1.343
-1.014, 0.250, 0.586, -111.389, -244.019, 29.480
-1.061, 0.318, 1.185, -124.939, -232.849, 57.495
-1.115, 0.469, 1.746, -131.409, -200.439, 80.750
-1.212, 0.693, 2.167, -120.605, -154.785, 96.924
-1.290, 0.905, 2.512, -87.891, -106.506, 106.750
-1.122, 1.140, 2.794, -34.485, -73.181, 115.662
-0.711, 1.561, 3.124, 23.560, -72.937, 118.225
0.073, 1.877, 3.445, 80.994, -108.643, 119.385
0.671, 2.224, 3.656, 123.169, -148.071, 128.174
1.185, 2.483, 3.989, 116.882, -151.611, 138.306
1.479, 2.935, 4.000, 56.030, -109.436, 145.630
1.698, 3.020, 3.400, -9.705, -30.945, 149.658
1.494, 2.933, 2.490, -52.124, 39.063, 117.798
1.093, 2.654, 1.949, -67.200, 83.557, 46.570
0.665, 2.217, 1.607, -56.458, 98.633, -20.935
0.204, 1.604, 1.524, -27.222, 106.689, -64.575
-0.196, 1.200, 1.503, 1.404, 112.915, -80.933
-0.427, 1.013, 1.384, 24.170, 124.329, -76.416
-0.529, 0.913, 1.189, 33.813, 128.601, -55.176
-0.529, 0.927, 1.104, 31.128, 140.076, -29.236
-0.594, 0.976, 1.063, 29.053, 156.921, -6.836
-0.573, 1.059, 1.004, 30.273, 168.945, 6.836
-0.536, 1.120, 0.944, 31.372, 178.284, 7.996
-0.506, 1.131, 0.803, 26.062, 180.908, 1.404
-0.478, 1.094, 0.625, 13.611, 185.059, -7.080
-0.455, 1.004, 0.387, -2.747, 189.270, -14.282
-0.436, 0.917, 0.132, -17.151, 190.674, -19.409
-0.428, 0.812, -0.100, -28.259, 177.856, -20.691
-0.349, 0.749, -0.278, -36.011, 161.560, -22.766
-0.218, 0.694, -0.473, -38.513, 146.301, -26.184
-0.084, 0.643, -0.680, -38.818, 124.451, -27.466
0.048, 0.605, -0.849, -39.490, 100.830, -29.602
0.171, 0.574, -0.984, -39.368, 81.238, -34.546
0.283, 0.525, -1.086, -38.025, 65.247, -36.987
0.394, 0.499, -1.209, -35.889, 49.683, -36.133
0.555, 0.472, -1.316, -32.593, 36.682, -33.569
0.662, 0.485, -1.362, -32.349, 28.137, -30.151
0.761, 0.502, -1.436, -35.400, 25.085, -28.320
0.839, 0.535, -1.487, -38.879, 24.658, -30.518
0.889, 0.545, -1.542, -37.598, 28.870, -38.879
0.930, 0.530, -1.590, -32.898, 39.246, -52.246
0.893, 0.487, -1.639, -25.574, 54.810, -71.716
0.738, 0.439, -1.738, -15.991, 76.782, -94.238
0.480, 0.388, -1.908, -5.432, 102.539, -113.342
0.130, 0.377, -2.159, 6.104, 130.554, -126.282
-0.280, 0.363, -2.569, 22.156, 161.804, -132.935
-0.570, 0.326, -3.123, 40.344, 183.350, -127.869
-0.648, 0.253, -3.599, 57.129, 170.532, -105.713
-0.576, 0.162, -3.660, 66.956, 108.154, -64.636
-0.443, 0.135, -3.244, 64.209, 15.320, -9.338
-0.292, 0.223, -2.609, 52.063, -62.927, 47.913
-0.146, 0.365, -2.060, 34.424, -105.286, 96.863
-0.002, 0.539, -1.662, 14.771, -116.455, 132.202
0.140, 0.716, -1.454, 0.610, -108.521, 151.123
0.245, 0.872, -1.363, -5.371, -88.928, 155.090
0.289, 1.004, -1.354, -6.714, -66.467, 147.034
0.315, 1.106, -1.411, -1.770, -45.532, 129.944
0.293, 1.163, -1.508, 12.085, -32.410, 104.980
0.219, 1.167, -1.670, 31.616, -29.602, 74.890
0.126, 1.132, -1.819, 49.438, -34.851, 43.701
0.018, 1.024, -1.880, 61.218, -52.185, 25.879
-0.114, 0.922, -1.884, 61.768, -86.731, 16.235
-0.173, 0.791, -1.796, 56.641, -112.732, 4.578
-0.211, 0.677, -1.685, 48.889, -134.094, 0.488
-0.275, 0.590, -1.526, 39.612, -160.889, 3.235
-0.315, 0.510, -1.287, 30.823, -187.561, 7.141
-0.349, 0.412, -0.987, 19.226, -208.252, 10.071
-0.412, 0.338, -0.656, 5.432, -223.206, 13.916
-0.442, 0.304, -0.346, -5.188, -230.957, 17.944
-0.527, 0.285, -0.017, -18.250, -228.943, 20.691
-0.682, 0.317, 0.380, -34.973, -221.558, 21.545
-0.903, 0.322, 0.780, -49.377, -208.069, 22.888
-1.171, 0.342, 1.157, -59.387, -187.744, 28.442
-1.345, 0.343, 1.540, -62.195, -164.490, 39.490
-1.454, 0.389, 1.947, -56.091, -143.066, 56.946
-1.456, 0.549, 2.324, -40.222, -126.282, 78.369
-1.307, 0.842, 2.582, -12.329, -120.117, 99.304
-0.963, 1.227, 2.742, 21.912, -127.441, 116.638
-0.550, 1.599, 2.945, 54.199, -147.888, 128.662
-0.025, 1.861, 2.782, 74.219, -167.297, 137.756
0.510, 2.118, 3.069, 63.232, -170.715, 147.034
0.859, 2.430, 3.348, 30.762, -153.015, 166.931
1.355, 2.855, 3.239, -13.000, -108.582, 182.495
1.619, 3.177, 2.956, -37.415, -56.152, 167.908
1.593, 3.257, 2.620, -49.255, -2.686, 111.450
1.240, 3.048, 2.324, -50.293, 46.387, 23.865
0.675, 2.541, 1.991, -41.565, 86.914, -71.838
0.134, 1.959, 1.765, -28.442, 114.319, -146.057
-0.315, 1.440, 1.602, -7.690, 124.817, -184.082
-0.580, 1.115, 1.432, 17.761, 126.221, -188.782
-0.756, 0.880, 1.322, 37.598, 120.361, -172.913
-0.856, 0.729, 1.268, 44.434, 114.990, -152.832
-0.875, 0.636, 1.209, 44.250, 113.342, -128.174
-0.894, 0.607, 1.166, 35.522, 117.371, -100.281
-0.861, 0.604, 1.069, 17.395, 128.296, -72.693
-0.765, 0.641, 0.959, -6.653, 141.968, -46.021
-0.696, 0.671, 0.757, -33.813, 155.457, -25.391
-0.641, 0.679, 0.496, -60.486, 164.612, -12.329
0.694, 0.585, -1.393, 45.166, 36.560, -47.119
0.778, 0.606, -1.492, 50.903, 35.706, -48.035
0.899, 0.616, -1.656, 55.420, 39.673, -49.744
0.921, 0.598, -1.818, 55.359, 46.692, -55.054
0.853, 0.599, -1.964, 50.598, 57.800, -59.448
0.737, 0.627, -2.059, 39.246, 81.665, -63.599
0.462, 0.719, -2.173, 28.564, 118.103, -70.190
0.023, 0.882, -2.464, 26.184, 166.992, -81.421
-0.396, 1.034, -3.046, 37.292, 219.727, -93.262
-0.582, 1.008, -3.764, 55.054, 239.136, -97.473
-0.603, 0.809, -4.000, 63.232, 186.829, -88.074
-0.574, 0.542, -3.973, 54.260, 68.909, -56.885
-0.407, 0.384, -3.228, 30.640, -65.247, -5.127
-0.241, 0.352, -2.320, 0.854, -156.006, 52.734
-0.139, 0.392, -1.625, -26.184, -190.613, 103.210
0.054, 0.514, -1.264, -40.771, -185.669, 143.433
0.205, 0.650, -1.087, -43.823, -159.790, 165.649
0.317, 0.773, -1.010, -34.973, -134.277, 167.725
0.391, 0.881, -0.999, -18.188, -111.633, 156.494
0.481, 0.961, -1.067, 3.906, -85.632, 136.047
0.425, 1.020, -1.178, 27.832, -72.693, 109.436
0.370, 1.008, -1.299, 52.551, -66.345, 78.125
0.304, 0.946, -1.429, 76.843, -58.350, 44.556
0.190, 0.872, -1.527, 92.651, -61.401, 18.799
0.072, 0.794, -1.549, 96.497, -76.904, 2.380
-0.026, 0.715, -1.521, 91.248, -99.670, -5.798
-0.113, 0.644, -1.432, 81.238, -124.146, -8.179
-0.214, 0.612, -1.288, 68.909, -148.132, -6.226
-0.293, 0.570, -1.101, 55.908, -172.241, 0.793
-0.322, 0.555, -0.867, 38.513, -197.266, 12.146
-0.391, 0.550, -0.625, 13.916, -216.003, 23.376
-0.439, 0.569, -0.343, -15.625, -228.455, 37.415
-0.505, 0.600, -0.049, -43.701, -233.276, 51.697
-0.579, 0.615, 0.251, -61.035, -231.445, 61.279
-0.683, 0.625, 0.535, -66.467, -225.952, 63.293
-0.811, 0.666, 0.847, -65.613, -213.806, 61.462
-1.013, 0.701, 1.213, -67.566, -193.237, 58.716
-1.131, 0.704, 1.630, -69.092, -168.457, 57.983
-1.147, 0.788, 2.141, -61.523, -142.212, 60.730
-1.003, 1.011, 2.724, -39.429, -120.239, 62.988
-0.588, 1.348, 3.207, 5.737, -109.985, 57.617
-0.124, 1.755, 3.568, 83.008, -104.614, 37.964
0.284, 2.134, 3.653, 158.936, -94.421, 0.916
0.606, 2.178, 3.279, 191.772, -71.655, -34.241
0.807, 2.045, 2.876, 167.358, -45.898, -49.683
0.886, 1.953, 2.637, 101.196, -20.569, -43.457
0.893, 1.849, 2.447, 24.780, 7.874, -35.645
0.747, 1.690, 2.288, -35.767, 35.339, -41.687
0.484, 1.501, 2.163, -75.989, 63.721, -55.725
0.205, 1.266, 1.994, -96.863, 92.712, -69.031
-0.063, 1.061, 1.816, -97.290, 118.103, -74.768
-0.260, 0.915, 1.618, -80.566, 134.827, -72.571
-0.422, 0.768, 1.398, -55.298, 142.700, -65.247
-0.545, 0.724, 1.209, -34.485, 146.606, -59.265
-0.615, 0.707, 1.071, -22.766, 146.057, -53.650
-0.669, 0.715, 0.995, -19.653, 142.944, -45.654
-0.708, 0.745, 0.950, -25.269, 141.785, -35.522
-0.697, 0.768, 0.910, -37.292, 143.921, -26.306
-0.659, 0.764, 0.865, -49.072, 150.574, -18.616
-0.612, 0.765, 0.735, -59.204, 158.081, -12.939
-0.624, 0.752, 0.490, -68.970, 163.086, -11.292
-0.619, 0.754, 0.242, -78.125, 164.673, -12.451
-0.508, 0.723, -0.008, -81.848, 160.034, -14.038
-0.464, 0.707, -0.222, -76.782, 147.522, -17.029
-0.329, 0.682, -0.331, -63.660, 128.784, -20.447
-0.299, 0.655, -0.521, -49.988, 100.464, -25.208
-0.174, 0.640, -0.626, -38.635, 91.919, -27.893
-0.084, 0.641, -0.755, -34.790, 85.144, -23.621
0.035, 0.665, -0.898, -36.011, 76.416, -15.747
0.224, 0.704, -1.045, -33.752, 69.641, -10.620
0.464, 0.737, -1.195, -23.804, 60.486, -9.460
0.684, 0.796, -1.297, -6.531, 47.729, -13.000
0.873, 0.800, -1.378, 13.306, 33.630, -21.240
1.001, 0.816, -1.415, 30.029, 21.606, -31.982
1.060, 0.821, -1.432, 43.030, 17.578, -43.213
1.085, 0.833, -1.504, 52.917, 25.879, -58.472
1.016, 0.792, -1.610, 55.420, 42.725, -75.562
1.000, 0.735, -1.733, 53.223, 56.458, -87.646
0.960, 0.691, -1.847, 51.331, 66.772, -96.252
0.882, 0.643, -2.012, 52.368, 72.083, -102.356
0.748, 0.567, -2.147, 50.476, 72.388, -103.394
0.558, 0.485, -2.149, 38.940, 68.237, -96.252
0.350, 0.412, -2.154, 18.860, 69.458, -77.820
0.206, 0.406, -2.183, -3.479, 81.543, -50.781
0.095, 0.433, -2.222, -20.020, 91.248, -21.179
0.046, 0.464, -2.258, -24.475, 87.585, 6.592
0.076, 0.539, -2.211, -19.226, 67.932, 31.616
0.124, 0.596, -2.077, -8.972, 37.415, 48.767
0.153, 0.634, -1.897, 0.916, 5.188, 57.861
0.157, 0.666, -1.685, 9.216, -18.921, 60.913
0.117, 0.680, -1.546, 15.137, -32.532, 59.937
0.236, 0.672, -1.397, 15.015, -36.133, 58.960
0.223, 0.704, -1.339, 9.949, -43.457, 52.185
0.251, 0.733, -1.337, 14.038, -29.785, 44.434
0.248, 0.763, -1.448, 20.020, -11.963, 31.250
0.194, 0.786, -1.638, 28.137, -2.563, 14.038
0.142, 0.787, -1.820, 40.405, -1.160, -5.798
0.043, 0.755, -1.983, 53.223, -10.864, -24.475
-0.046, 0.683, -2.084, 59.875, -29.724, -39.368
-0.126, 0.593, -2.093, 58.899, -55.786, -47.546
-0.209, 0.506, -2.015, 52.368, -86.975, -48.523
-0.259, 0.413, -1.872, 43.518, -118.774, -42.175
-0.293, 0.343, -1.675, 36.438, -149.048, -29.907
-0.312, 0.272, -1.431, 33.081, -178.467, -13.184
-0.402, 0.202, -1.074, 33.386, -206.604, 5.676
-0.358, 0.182, -0.680, 34.790, -233.276, 28.320
-0.379, 0.233, -0.309, 32.104, -247.192, 51.819
-0.458, 0.313, 0.004, 19.409, -245.605, 72.693
-0.526, 0.436, 0.294, -6.348, -232.910, 88.074
-0.661, 0.609, 0.605, -35.645, -216.919, 95.337
-0.819, 0.728, 1.027, -61.279, -196.533, 93.750
-0.974, 0.749, 1.666, -83.496, -173.889, 85.266
-0.912, 0.820, 2.519, -91.553, -151.367, 79.102
-0.602, 1.104, 3.392, -67.932, -132.996, 80.811
-0.046, 1.584, 3.979, -5.127, -122.437, 79.407
0.500, 2.114, 4.000, 84.412, -117.493, 46.021
0.808, 2.125, 3.661, 162.659, -115.051, -9.338
0.797, 1.930, 3.192, 184.631, -104.248, -46.326
0.871, 1.659, 2.859, 146.057, -75.012, -51.819
0.828, 1.484, 2.513, 15.808, -8.972, -14.465
0.754, 1.488, 2.335, -19.897, 16.907, -0.488
0.581, 1.427, 2.158, -41.382, 46.387, -1.465
0.332, 1.289, 1.895, -49.744, 74.402, -10.010
0.092, 1.129, 1.620, -41.992, 99.243, -19.531
-0.040, 0.987, 1.464, -23.804, 116.943, -23.499
-0.202, 0.852, 1.339, -4.456, 119.202, -20.203
-0.261, 0.728, 1.296, 9.155, 126.587, -14.404
-0.333, 0.691, 1.257, 11.597, 135.132, -6.958
-0.359, 0.658, 1.284, 2.747, 137.573, 2.075
-0.386, 0.672, 1.258, -11.719, 144.226, 12.634
-0.395, 0.694, 1.075, -30.701, 155.579, 21.057
-0.420, 0.748, 0.859, -47.791, 166.931, 26.001
-0.437, 0.789, 0.669, -56.152, 173.035, 27.344
-0.470, 0.817, 0.517, -56.824, 169.128, 25.269
-0.479, 0.810, 0.366, -53.955, 158.752, 20.935
-0.452, 0.803, 0.227, -54.199, 145.020, 19.897
-0.394, 0.808, 0.044, -58.716, 130.432, 21.851
-0.269, 0.837, -0.129, -66.467, 115.845, 26.245
-0.171, 0.854, -0.333, -75.195, 102.661, 29.419
-0.095, 0.846, -0.538, -82.153, 93.567, 32.654
-0.016, 0.844, -0.786, -86.792, 89.966, 36.621
0.078, 0.880, -0.976, -90.881, 88.074, 39.673
0.200, 0.900, -1.125, -87.769, 78.918, 39.734
0.339, 0.935, -1.247, -73.059, 61.035, 38.086
0.460, 0.959, -1.311, -48.950, 44.373, 32.227
0.585, 1.021, -1.379, -20.264, 29.480, 23.437
0.723, 1.083, -1.444, 10.071, 17.761, 12.024
0.805, 1.113, -1.568, 38.452, 9.094, -4.578
0.871, 1.086, -1.680, 53.894, 7.385, -24.170
0.862, 1.006, -1.754, 52.979, 12.268, -48.096
0.795, 0.867, -1.880, 40.894, 25.208, -72.815
0.768, 0.737, -2.073, 24.292, 44.861, -93.567
0.655, 0.636, -2.321, 7.568, 69.946, -111.145
0.412, 0.572, -2.628, -5.798, 95.154, -124.390
0.093, 0.516, -2.995, -18.066, 115.662, -130.371
-0.115, 0.353, -3.248, -25.391, 114.136, -125.244
-0.239, 0.125, -3.223, -27.405, 76.904, -104.248
-0.230, -0.059, -2.953, -26.917, 19.653, -66.833
-0.137, -0.041, -2.489, -29.480, -32.104, -15.076
0.019, 0.068, -2.071, -31.372, -66.589, 36.011
0.199, 0.236, -1.772, -27.222, -80.261, 73.242
0.327, 0.409, -1.586, -19.409, -75.256, 92.957
0.447, 0.563, -1.489, -13.306, -58.838, 97.900
0.485, 0.668, -1.426, -8.423, -38.086, 90.759
0.466, 0.718, -1.453, -1.221, -15.808, 74.768
0.423, 0.746, -1.559, 6.897, -0.732, 57.068
0.337, 0.749, -1.673, 17.029, 4.333, 40.955
0.324, 0.720, -1.753, 25.818, 2.747, 28.687
0.177, 0.676, -1.827, 26.917, -14.709, 23.193
0.100, 0.615, -1.792, 21.423, -28.992, 19.043
0.004, 0.557, -1.719, 10.620, -40.833, 22.461
-0.047, 0.506, -1.604, -1.465, -55.847, 32.898
-0.044, 0.482, -1.467, -6.958, -70.862, 44.312
-0.074, 0.464, -1.308, -5.005, -87.646, 52.795
-0.129, 0.459, -1.125, 1.221, -105.530, 58.350
-0.154, 0.486, -0.920, 8.972, -121.643, 60.913
-0.206, 0.522, -0.664, 18.738, -137.207, 58.716
-0.292, 0.574, -0.433, 30.029, -151.001, 52.490
-0.402, 0.651, -0.191, 32.898, -159.485, 44.189
-0.606, 0.684, 0.050, 20.874, -164.124, 36.316
-0.749, 0.603, 0.332, -0.549, -168.091, 35.461
-0.885, 0.617, 0.756, -22.705, -174.255, 42.603
-0.975, 0.657, 1.233, -34.241, -176.086, 51.941
-1.012, 0.720, 1.794, -31.311, -171.143, 61.401
-0.876, 0.873, 2.446, -18.188, -162.842, 71.655
-0.553, 1.229, 3.026, 6.897, -152.039, 79.102
-0.165, 1.657, 3.287, 44.739, -140.991, 75.439
0.174, 2.074, 3.265, 73.792, -133.545, 55.481
0.560, 2.242, 3.039, 87.341, -135.010, 29.907
0.881, 2.094, 2.812, 80.933, -140.869, 23.010
1.066, 1.996, 3.040, 54.871, -129.395, 29.236
1.202, 2.054, 2.954, 32.471, -88.867, 40.344
1.260, 2.156, 2.620, 18.372, -33.081, 34.607
1.047, 2.034, 2.322, 10.437, 15.381, 6.409
0.642, 1.732, 2.091, 6.897, 55.786, -31.189
0.211, 1.359, 1.823, 7.629, 92.407, -62.073
-0.133, 1.042, 1.583, 11.414, 121.155, -77.148
-0.346, 0.850, 1.470, 16.479, 138.245, -74.463
-0.468, 0.751, 1.412, 21.240, 147.217, -57.922
-0.564, 0.724, 1.402, 21.301, 153.137, -36.072
-0.632, 0.755, 1.339, 18.372, 161.926, -23.376
-0.681, 0.791, 1.255, 14.160, 171.692, -16.724
-0.704, 0.818, 1.094, 6.348, 179.871, -13.916
-0.709, 0.854, 0.875, -6.287, 186.157, -12.573
-0.696, 0.850, 0.607, -18.677, 187.378, -13.000
-0.731, 0.810, 0.344, -28.076, 182.495, -13.733
-0.736, 0.755, 0.103, -34.607, 173.035, -10.986
-0.675, 0.756, -0.012, -40.344, 156.738, -3.296
-0.621, 0.759, -0.166, -48.218, 129.272, 7.996
-0.503, 0.777, -0.317, -56.519, 113.342, 19.592
-0.331, 0.787, -0.480, -65.308, 98.938, 32.837
-0.150, 0.859, -0.648, -72.083, 82.764, 43.762
-0.011, 0.942, -0.842, -70.557, 69.824, 47.668
0.139, 1.011, -0.995, -62.073, 60.669, 42.786
0.241, 1.046, -1.118, -48.828, 48.584, 32.593
0.388, 1.078, -1.180, -34.546, 33.813, 19.897
0.499, 1.115, -1.260, -17.639, 17.761, 2.014
0.572, 1.128, -1.307, 1.709, 3.906, -19.043
0.648, 1.101, -1.308, 21.606, -7.568, -41.809
0.679, 1.068, -1.283, 40.222, -16.357, -65.369
0.672, 0.973, -1.383, 52.063, -17.822, -88.623
0.663, 0.835, -1.578, 50.476, -11.108, -104.980
0.621, 0.667, -1.697, 33.752, -5.554, -113.892
0.580, 0.476, -1.789, 11.292, -4.211, -114.685
0.519, 0.314, -1.864, -10.742, -3.174, -105.591
0.554, 0.232, -1.918, -30.090, -3.113, -89.478
0.520, 0.205, -1.976, -42.053, -3.540, -71.533
0.445, 0.220, -2.005, -44.617, -2.258, -54.749
0.360, 0.257, -2.099, -41.565, 3.052, -39.307
0.267, 0.277, -2.242, -34.424, 10.254, -27.771
0.155, 0.288, -2.341, -26.306, 12.939, -16.724
0.079, 0.315, -2.395, -18.433, 7.568, -2.136
0.056, 0.376, -2.418, -10.376, -5.737, 18.250
0.056, 0.470, -2.334, -3.906, -27.344, 42.358
0.104, 0.548, -2.170, 0.427, -49.744, 65.735
0.172, 0.642, -1.985, 0.122, -65.552, 86.060
0.260, 0.756, -1.747, -5.066, -74.768, 102.600
0.381, 0.870, -1.531, -10.498, -74.341, 112.915
0.509, 1.121, -1.317, -21.790, -55.725, 108.704
0.590, 1.198, -1.373, -24.536, -28.809, 91.187
0.626, 1.202, -1.497, -23.254, -8.179, 64.636
0.626, 1.144, -1.573, -17.883, 0.793, 34.546
0.575, 1.036, -1.604, -9.949, -0.549, 5.310
0.516, 0.894, -1.589, -3.418, -8.118, -16.357
0.463, 0.744, -1.584, -0.549, -17.273, -28.259
0.413, 0.629, -1.580, -1.831, -27.283, -30.212
0.379, 0.512, -1.568, -7.385, -40.710, -25.208
0.318, 0.441, -1.449, -15.503, -58.838, -14.709
0.257, 0.425, -1.207, -24.475, -78.186, -1.404
0.198, 0.446, -0.960, -32.715, -91.553, 11.292
0.116, 0.494, -0.752, -39.612, -96.619, 20.203
-0.008, 0.542, -0.596, -42.786, -97.534, 22.278
-0.177, 0.587, -0.433, -41.931, -98.755, 19.287
-0.429, 0.643, -0.217, -38.086, -105.957, 14.282
-0.673, 0.615, 0.010, -28.564, -119.202, 11.719
-0.830, 0.544, 0.266, -13.184, -140.259, 16.418
-1.003, 0.516, 0.635, 4.333, -168.030, 27.649
-1.126, 0.534, 1.185, 16.357, -195.312, 48.889
-1.136, 0.692, 1.816, 16.052, -215.515, 81.116
-1.031, 0.923, 2.403, 12.146, -224.915, 115.295
-0.823, 1.152, 2.761, 7.263, -219.727, 144.409
-0.542, 1.472, 3.064, -0.916, -202.942, 168.518
-0.148, 1.822, 3.257, -3.662, -175.171, 182.068
0.192, 2.132, 3.096, 3.174, -139.038, 182.129
0.666, 2.293, 2.724, 8.423, -100.830, 165.344
0.853, 2.472, 2.625, 16.968, -71.167, 137.390
0.851, 2.527, 2.508, 28.320, -38.818, 103.943
0.732, 2.469, 2.279, 26.001, 2.747, 61.768
0.494, 2.253, 1.993, 14.709, 46.448, 17.517
0.154, 1.958, 1.753, -0.732, 81.787, -20.996
-0.150, 1.593, 1.539, -9.766, 109.009, -51.575
-0.394, 1.277, 1.413, -11.780, 126.648, -69.580
-0.555, 1.077, 1.337, -8.850, 135.498, -74.951
-0.632, 0.944, 1.240, -1.221, 140.259, -73.486
-0.673, 0.894, 1.181, 8.789, 143.494, -70.007
-0.692, 0.862, 1.078, 19.409, 147.583, -68.787
-0.711, 0.867, 0.967, 26.184, 151.550, -70.618
-0.714, 0.866, 0.868, 30.518, 153.870, -74.097
-0.696, 0.859, 0.785, 34.302, 153.198, -79.773
-0.655, 0.832, 0.625, 37.720, 153.198, -84.534
-0.586, 0.785, 0.395, 37.354, 156.067, -86.365
-0.517, 0.740, 0.135, 32.959, 158.630, -84.351
-0.426, 0.719, -0.074, 28.015, 155.823, -76.294
-0.334, 0.686, -0.268, 23.621, 146.423, -64.270
-0.237, 0.677, -0.431, 17.578, 133.545, -48.950
-0.114, 0.691, -0.617, 8.606, 121.033, -30.334
0.008, 0.724, -0.837, -0.183, 110.107, -11.047
0.188, 0.777, -0.995, -6.714, 98.938, 4.639
0.254, 0.844, -1.111, -13.489, 76.721, 14.160
0.405, 0.893, -1.192, -13.916, 67.261, 20.935
0.562, 0.962, -1.290, -11.536, 63.171, 22.095
0.693, 1.011, -1.315, -5.554, 52.734, 17.517
0.760, 1.044, -1.291, 3.906, 44.128, 4.639
0.806, 1.025, -1.260, 15.869, 37.598, -7.935
0.801, 1.016, -1.223, 28.870, 34.729, -22.522
0.788, 0.978, -1.306, 41.138, 38.879, -37.170
0.754, 0.975, -1.384, 47.119, 47.302, -48.828
0.666, 0.936, -1.544, 52.063, 53.589, -60.913
0.638, 0.826, -1.761, 53.406, 54.993, -70.557
0.526, 0.694, -1.984, 45.532, 53.040, -73.059
0.376, 0.615, -2.182, 24.231, 50.598, -64.758
0.236, 0.594, -2.258, -6.836, 49.988, -47.363
0.038, 0.614, -2.250, -37.292, 52.612, -27.771
-0.174, 0.703, -2.255, -57.678, 63.049, -10.498
-0.343, 0.758, -2.371, -59.692, 78.796, -1.221
-0.418, 0.740, -2.564, -42.603, 84.717, 4.272
-0.407, 0.657, -2.671, -17.151, 64.697, 11.414
-0.347, 0.560, -2.569, 6.348, 19.653, 24.658
-0.255, 0.524, -2.321, 21.301, -31.311, 44.922
-0.145, 0.522, -2.030, 25.085, -69.519, 69.397
-0.044, 0.543, -1.753, 16.541, -90.454, 92.896
0.078, 0.606, -1.539, 1.099, -97.290, 113.892
0.199, 0.731, -1.392, -14.587, -93.445, 130.554
0.292, 0.918, -1.353, -28.259, -84.229, 139.709
0.377, 1.081, -1.365, -35.828, -74.402, 136.841
0.458, 1.212, -1.376, -34.912, -69.092, 121.094
0.473, 1.245, -1.406, -24.292, -67.627, 94.421
0.463, 1.199, -1.398, -11.230, -70.190, 62.744
0.379, 1.080, -1.395, -2.014, -79.102, 31.494
0.306, 0.920, -1.396, 5.432, -77.759, 5.493
0.211, 0.754, -1.421, 8.789, -78.796, -6.775
0.114, 0.635, -1.399, 9.216, -87.769, -7.019
0.016, 0.578, -1.337, 7.568, -101.501, 1.099
-0.096, 0.547, -1.216, -0.488, -116.089, 15.442
-0.164, 0.563, -1.015, -16.418, -129.944, 34.241
-0.224, 0.635, -0.773, -30.457, -141.113, 51.331
-0.292, 0.699, -0.518, -36.255, -149.475, 59.937
-0.395, 0.753, -0.219, -31.250, -157.715, 59.204
-0.484, 0.827, 0.050, -15.747, -165.466, 52.246
-0.555, 0.911, 0.338, -0.549, -168.945, 39.307
-0.678, 0.899, 0.623, 10.010, -168.396, 19.836
-0.856, 0.751, 0.909, 12.573, -163.940, 3.540
-0.928, 0.722, 1.358, 4.333, -167.786, 6.165
-0.787, 0.713, 1.964, -8.240, -179.810, 26.306
-0.665, 0.821, 2.527, -17.273, -180.359, 51.453
-0.443, 0.992, 2.918, -18.250, -154.114, 75.623
-0.191, 1.227, 2.936, -6.653, -110.107, 90.637
0.084, 1.539, 2.784, 13.733, -76.233, 92.590
0.334, 1.832, 2.589, 41.809, -61.646, 77.148
0.466, 1.910, 2.307, 67.017, -51.025, 46.448
0.518, 1.813, 2.151, 69.946, -35.889, 10.803
0.478, 1.731, 2.133, 61.401, -17.639, -7.629
0.397, 1.620, 2.016, 47.424, 7.935, -16.052
0.290, 1.526, 1.790, 25.452, 37.292, -19.836
0.140, 1.449, 1.557, 1.648, 65.002, -22.949
-0.017, 1.359, 1.401, -16.479, 89.539, -29.358
-0.152, 1.257, 1.346, -24.963, 107.849, -38.757
-0.294, 1.150, 1.354, -22.644, 120.056, -49.072
-0.386, 1.031, 1.367, -14.099, 130.493, -56.763
-0.499, 0.971, 1.358, -5.005, 140.808, -60.059
-0.544, 0.953, 1.262, 5.310, 148.743, -62.622
-0.610, 0.960, 1.151, 15.686, 154.602, -66.528
-0.653, 0.931, 1.009, 21.790, 158.875, -71.716
-0.689, 0.874, 0.859, 20.264, 161.560, -74.097
-0.678, 0.807, 0.731, 13.184, 164.124, -70.557
-0.664, 0.760, 0.603, 6.653, 165.649, -64.026
-0.627, 0.698, 0.411, 1.038, 162.415, -57.129
0.477, 1.066, -1.225, -13.123, 32.898, -2.014
0.615, 1.052, -1.272, 6.287, 21.851, -21.240
0.790, 1.042, -1.321, 29.663, 15.137, -43.274
0.862, 1.015, -1.428, 56.396, 12.146, -71.350
0.816, 0.964, -1.580, 77.576, 16.724, -99.976
0.699, 0.871, -1.838, 84.961, 30.396, -120.361
0.657, 0.721, -2.201, 74.341, 49.377, -127.869
0.478, 0.646, -2.466, 48.340, 60.913, -120.972
0.310, 0.669, -2.698, 22.217, 71.228, -107.910
0.048, 0.777, -2.906, 0.244, 75.684, -91.125
-0.290, 0.894, -3.163, -12.329, 66.528, -71.045
-0.422, 0.987, -3.445, -18.433, 54.321, -50.293
-0.356, 0.951, -3.503, -21.973, 19.104, -31.982
-0.159, 0.794, -3.150, -24.170, -46.753, -12.939
0.075, 0.615, -2.545, -27.161, -114.868, 11.230
0.260, 0.553, -1.939, -33.813, -155.334, 41.321
0.427, 0.582, -1.521, -41.748, -162.048, 69.946
0.579, 0.649, -1.292, -48.706, -146.118, 90.637
0.685, 0.721, -1.170, -55.237, -120.605, 101.074
0.741, 0.810, -1.081, -60.547, -91.187, 103.333
0.787, 0.895, -1.052, -58.594, -63.110, 97.778
0.837, 0.961, -1.074, -44.678, -40.344, 83.008
0.840, 0.998, -1.162, -20.630, -24.597, 58.533
0.799, 0.971, -1.315, 6.287, -16.663, 29.785
0.717, 0.925, -1.450, 27.771, -16.724, 4.150
0.604, 0.873, -1.539, 41.382, -23.254, -13.672
0.482, 0.840, -1.610, 48.096, -32.776, -26.245
0.397, 0.794, -1.672, 51.270, -44.495, -31.555
0.333, 0.750, -1.701, 54.565, -61.951, -32.959
0.280, 0.701, -1.661, 58.777, -86.243, -33.813
0.137, 0.620, -1.564, 63.538, -115.906, -35.889
0.009, 0.528, -1.370, 65.063, -144.958, -37.292
-0.202, 0.410, -1.059, 62.622, -181.885, -31.921
-0.317, 0.331, -0.617, 52.307, -206.177, -28.870
-0.484, 0.295, -0.208, 28.198, -215.088, -21.179
-0.607, 0.347, 0.179, -4.089, -213.135, -5.920
-0.724, 0.406, 0.631, -40.527, -197.693, 7.751
-0.886, 0.424, 1.043, -77.209, -171.753, 14.404
-1.082, 0.477, 1.344, -97.900, -146.301, 15.137
-1.287, 0.529, 1.616, -90.210, -135.620, 16.296
-1.386, 0.587, 2.078, -67.017, -147.095, 23.315
-1.266, 0.607, 2.583, -38.147, -175.659, 31.982
-1.022, 0.681, 2.964, -4.822, -203.186, 43.274
-0.750, 0.848, 3.164, 30.396, -209.473, 63.354
-0.507, 1.063, 3.179, 55.969, -191.711, 90.881
-0.013, 1.250, 2.925, 60.303, -162.231, 125.427
0.384, 1.561, 2.970, 40.039, -133.423, 161.072
0.589, 1.915, 2.690, 5.798, -90.393, 192.322
0.843, 2.307, 2.314, -35.339, -31.677, 202.942
0.879, 2.571, 1.964, -63.171, 22.522, 173.889
0.729, 2.546, 1.760, -73.853, 63.110, 109.863
0.420, 2.256, 1.616, -73.608, 94.421, 29.663
0.017, 1.789, 1.476, -62.805, 121.216, -45.166
-0.313, 1.363, 1.383, -43.701, 140.686, -97.900
-0.518, 1.090, 1.297, -18.311, 146.606, -124.939
-0.662, 0.913, 1.233, 4.639, 145.691, -136.108
-0.773, 0.817, 1.270, 22.522, 140.686, -136.292
-0.818, 0.793, 1.351, 38.574, 138.184, -129.272
-0.808, 0.777, 1.395, 49.194, 142.761, -119.263
-0.793, 0.718, 1.226, 50.110, 155.457, -108.093
-0.720, 0.623, 0.952, 38.940, 171.448, -91.858
-0.621, 0.583, 0.709, 18.188, 181.702, -68.604
-0.537, 0.593, 0.522, -2.258, 181.152, -40.588
-0.451, 0.577, 0.322, -19.897, 171.692, -16.357
-0.329, 0.618, 0.124, -34.485, 162.415, 4.944
-0.214, 0.713, -0.124, -46.692, 154.602, 24.292
-0.129, 0.815, -0.429, -57.556, 143.494, 36.621
-0.055, 0.884, -0.711, -67.627, 128.479, 44.861
0.082, 0.926, -0.950, -73.792, 109.192, 51.208
0.193, 0.978, -1.128, -75.989, 88.928, 51.697
0.293, 1.034, -1.239, -74.341, 68.481, 46.875
0.364, 1.058, -1.278, -69.946, 46.143, 37.537
0.386, 1.068, -1.279, -62.927, 27.283, 25.879
0.388, 1.080, -1.331, -55.542, 14.587, 14.954
0.426, 1.087, -1.416, -46.631, 2.502, 5.371
0.437, 1.127, -1.459, -32.166, -12.756, -5.249
0.442, 1.138, -1.519, -11.292, -29.846, -20.325
0.503, 1.157, -1.620, 9.583, -47.852, -37.292
0.605, 1.178, -1.708, 26.245, -65.613, -57.739
0.690, 1.130, -1.832, 36.865, -81.726, -87.891
0.773, 0.974, -1.950, 32.227, -92.896, -123.474
0.929, 0.707, -2.012, 10.925, -96.130, -154.907
1.961, 0.325, -2.463, -13.062, -93.323, -173.401
2.332, -0.047, -2.563, -0.183, -84.412, -165.710
1.730, -0.090, -1.949, 15.076, -48.462, -149.597
1.282, -0.157, -1.485, -10.376, 14.648, -133.484
0.830, -0.124, -1.177, -30.884, 76.660, -122.864
0.660, -0.203, -1.355, -11.536, 128.235, -131.409
0.601, -0.361, -1.844, 25.146, 157.288, -133.728
0.516, -0.423, -2.287, 52.490, 151.672, -105.408
0.464, -0.387, -2.594, 62.622, 122.131, -44.983
0.493, -0.256, -2.650, 51.819, 75.745, 32.654
0.501, 0.028, -2.433, 24.963, 22.827, 115.601
0.469, 0.407, -2.043, -5.432, -22.034, 188.477
0.487, 0.757, -1.645, -28.442, -53.833, 238.892
0.555, 1.084, -1.272, -42.236, -72.021, 260.986
0.698, 1.365, -1.066, -48.462, -69.275, 256.165
0.878, 1.569, -0.971, -43.640, -50.476, 226.501
0.997, 1.641, -0.994, -16.785, -22.888, 170.837
0.991, 1.593, -1.075, 28.503, 2.075, 99.792
0.888, 1.427, -1.190, 78.491, 18.860, 29.297
0.737, 1.199, -1.309, 117.065, 28.198, -29.724
0.560, 0.997, -1.415, 137.878, 30.701, -74.280
0.362, 0.815, -1.511, 142.151, 27.100, -103.394
0.184, 0.632, -1.563, 128.784, 15.747, -120.239
0.003, 0.440, -1.540, 100.830, -2.808, -125.977
-0.208, 0.244, -1.457, 63.354, -27.039, -120.972
-0.415, 0.088, -1.269, 21.912, -57.739, -104.309
-0.583, -0.026, -1.023, -12.390, -92.285, -77.942
-0.691, -0.090, -0.715, -36.987, -129.028, -45.959
-0.819, -0.099, -0.323, -57.556, -157.471, -13.672
-0.945, -0.040, 0.166, -75.012, -180.847, 15.808
-1.088, 0.044, 0.707, -91.797, -194.458, 42.786
-1.179, 0.138, 1.321, -109.619, -197.144, 70.862
-1.241, 0.311, 1.890, -126.099, -186.646, 100.769
-1.286, 0.525, 2.294, -131.409, -159.363, 131.897
-1.208, 0.808, 2.471, -115.906, -124.695, 162.170
-0.997, 1.234, 2.548, -82.214, -99.060, 185.364
-0.625, 1.760, 2.619, -38.452, -93.994, 196.350
0.159, 2.536, 2.575, 46.814, -108.398, 165.161
0.534, 2.647, 2.613, 62.622, -96.680, 132.812
0.725, 2.742, 2.644, 47.791, -68.420, 93.750
0.784, 2.693, 2.492, 22.949, -31.738, 62.256
0.709, 2.525, 2.183, 7.141, 12.695, 25.513
0.520, 2.248, 1.834, 4.089, 51.819, -16.296
0.300, 1.944, 1.580, 8.118, 73.792, -55.603
0.098, 1.659, 1.471, 15.259, 83.130, -86.243
-0.075, 1.419, 1.437, 25.757, 89.294, -105.652
-0.243, 1.195, 1.357, 39.001, 96.191, -117.310
-0.331, 1.001, 1.266, 49.133, 102.844, -122.009
-0.405, 0.877, 1.208, 54.688, 109.802, -118.469
-0.428, 0.795, 1.175, 57.617, 117.737, -109.558
-0.401, 0.760, 1.134, 61.096, 127.136, -99.609
-0.412, 0.708, 0.958, 67.261, 141.602, -91.980
-0.413, 0.646, 0.719, 68.970, 153.870, -81.787
-0.382, 0.586, 0.501, 61.584, 158.081, -66.650
-0.348, 0.550, 0.346, 45.288, 154.724, -48.584
-0.286, 0.523, 0.179, 21.057, 148.499, -29.541
-0.191, 0.482, 0.017, -7.568, 140.686, -8.362
-0.124, 0.464, -0.088, -37.415, 133.545, 15.381
-0.039, 0.465, -0.208, -67.871, 127.014, 40.466
0.101, 0.510, -0.348, -94.177, 122.192, 65.063
0.210, 0.583, -0.519, -110.657, 120.056, 82.336
0.292, 0.670, -0.632, -117.493, 115.356, 91.064
0.376, 0.740, -0.770, -112.061, 109.070, 91.797
0.489, 0.785, -0.933, -97.290, 102.966, 85.632
0.600, 0.817, -1.106, -78.552, 95.581, 73.486
0.681, 0.844, -1.255, -56.763, 85.632, 56.030
0.689, 0.836, -1.355, -34.180, 74.402, 33.997
0.658, 0.820, -1.407, -12.878, 63.538, 11.353
0.607, 0.805, -1.459, 6.714, 52.002, -5.249
0.565, 0.827, -1.536, 26.428, 43.396, -17.639
0.552, 0.843, -1.714, 46.387, 39.429, -31.677
0.546, 0.864, -1.872, 60.059, 32.898, -44.312
0.542, 0.902, -1.881, 67.200, 15.137, -55.603
0.495, 0.960, -1.804, 79.224, -3.296, -69.092
0.391, 0.988, -1.744, 96.313, -7.812, -85.266
0.261, 0.983, -1.725, 106.567, 2.930, -98.328
0.025, 0.994, -1.764, 105.286, 24.597, -102.478
-0.203, 1.026, -1.904, 91.553, 56.213, -101.196
-0.357, 1.062, -2.172, 71.350, 88.257, -94.971
-0.399, 1.059, -2.482, 45.837, 96.741, -75.867
-0.286, 1.030, -2.687, 13.977, 82.153, -57.190
-0.195, 0.934, -2.660, -20.264, 42.542, -42.358
-0.092, 0.812, -2.344, -53.162, -11.475, -29.663
0.034, 0.681, -1.933, -81.604, -55.725, -17.334
0.136, 0.572, -1.521, -105.713, -75.378, -6.958
0.234, 0.488, -1.244, -122.375, -73.059, 0.549
0.319, 0.443, -1.068, -127.136, -62.195, 6.958
0.374, 0.395, -0.973, -116.272, -52.551, 8.362
0.404, 0.358, -0.932, -95.215, -43.396, 5.920
0.405, 0.335, -0.979, -71.838, -33.752, 4.028
0.402, 0.330, -1.114, -51.453, -27.100, 1.648
0.398, 0.317, -1.237, -36.560, -29.846, 0.977
0.377, 0.294, -1.315, -29.419, -40.283, 4.639
0.384, 0.294, -1.332, -29.236, -50.110, 15.869
0.407, 0.306, -1.351, -33.325, -58.838, 33.020
0.448, 0.345, -1.362, -36.743, -68.481, 53.040
0.488, 0.425, -1.363, -35.950, -79.590, 72.021
0.532, 0.528, -1.349, -29.358, -91.003, 87.341
0.603, 0.619, -1.321, -15.930, -102.661, 95.154
0.654, 0.713, -1.228, 1.892, -114.319, 92.712
0.695, 0.784, -1.123, 22.095, -122.192, 81.482
0.675, 0.871, -1.003, 40.039, -123.230, 64.392
0.647, 0.966, -0.927, 52.490, -113.525, 42.847
0.573, 1.017, -0.940, 61.523, -97.961, 15.137
0.465, 0.986, -1.005, 68.726, -81.543, -16.663
0.264, 0.897, -1.057, 72.571, -74.341, -47.607
0.056, 0.781, -1.068, 72.998, -80.261, -71.899
-0.161, 0.610, -1.013, 69.641, -97.473, -88.074
-0.403, 0.423, -0.817, 59.937, -123.230, -93.445
-0.642, 0.282, -0.479, 43.579, -152.222, -85.449
-0.864, 0.160, -0.110, 22.949, -179.565, -65.552
-1.017, 0.171, 0.366, -1.526, -205.627, -35.645
-1.193, 0.299, 0.989, -26.550, -227.356, -2.075
-1.248, 0.447, 1.668, -48.767, -243.042, 31.982
-1.142, 0.679, 2.154, -56.213, -248.413, 65.002
-0.977, 0.928, 2.398, -34.241, -236.023, 87.952
-0.777, 1.171, 2.490, 16.663, -211.548, 96.436
-0.552, 1.307, 2.467, 78.186, -193.359, 96.436
-0.309, 1.405, 2.378, 121.155, -179.077, 94.421
-0.098, 1.523, 2.375, 131.042, -161.804, 100.769
0.124, 1.660, 2.342, 101.013, -141.602, 121.033
0.538, 1.810, 2.283, 35.645, -116.882, 147.400
0.852, 2.105, 2.519, -40.710, -91.064, 168.884
1.058, 2.376, 2.697, -90.210, -55.176, 169.861
1.119, 2.524, 2.686, -98.328, -8.728, 134.277
0.978, 2.397, 2.498, -67.932, 36.865, 64.270
0.652, 2.058, 2.209, -16.357, 71.411, -17.456
0.251, 1.657, 1.932, 30.762, 94.666, -87.952
-0.119, 1.289, 1.703, 64.270, 109.558, -132.935
-0.388, 1.000, 1.509, 83.862, 116.211, -151.550
-0.529, 0.796, 1.395, 93.933, 117.371, -151.306
-0.627, 0.648, 1.338, 100.403, 115.295, -140.015
-0.674, 0.557, 1.267, 102.478, 115.051, -121.033
-0.677, 0.529, 1.157, 94.421, 117.004, -95.825
-0.608, 0.514, 0.981, 76.843, 122.437, -68.970
-0.501, 0.536, 0.804, 52.246, 129.395, -43.091
-0.375, 0.562, 0.642, 24.780, 135.315, -19.958
-0.330, 0.584, 0.522, -1.099, 142.761, -1.343
-0.254, 0.609, 0.325, -22.339, 154.480, 14.465
-0.182, 0.634, 0.097, -41.565, 165.649, 31.738
-0.095, 0.683, -0.111, -64.209, 168.457, 49.438
0.018, 0.739, -0.327, -89.294, 161.682, 64.758
0.130, 0.768, -0.559, -112.183, 150.269, 77.332
0.238, 0.824, -0.759, -134.705, 134.216, 86.548
0.373, 0.860, -0.922, -154.968, 114.136, 92.529
0.470, 0.920, -0.997, -169.067, 93.201, 93.872
0.542, 0.957, -1.039, -173.950, 77.820, 89.722
0.593, 0.987, -1.081, -169.617, 63.110, 79.346
0.662, 0.983, -1.107, -155.701, 48.889, 65.552
0.726, 0.976, -1.116, -131.775, 35.217, 47.424
0.737, 0.955, -1.171, -98.938, 23.193, 23.865
0.759, 0.917, -1.238, -60.669, 10.864, 0.061
0.891, 0.905, -1.251, -21.606, -2.258, -21.973
0.960, 0.910, -1.292, 15.747, -10.864, -50.781
0.985, 0.843, -1.445, 49.255, -8.911, -88.135
0.906, 0.685, -1.613, 67.200, 2.808, -125.732
0.496, 0.150, -2.074, 20.325, 52.551, -157.715
0.293, 0.015, -2.165, -44.434, 76.538, -138.977
0.092, -0.038, -2.218, -106.873, 99.304, -107.300
-0.031, -0.066, -2.309, -152.161, 118.774, -68.420
-0.022, -0.056, -2.428, -179.993, 125.977, -27.283
0.074, -0.014, -2.508, -188.232, 111.938, 10.803
0.300, 0.041, -2.486, -177.063, 74.219, 37.048
0.556, 0.079, -2.317, -143.738, 22.095, 47.302
0.750, 0.091, -2.031, -89.539, -26.489, 43.762
0.884, 0.060, -1.734, -29.907, -57.373, 30.640
0.944, 0.029, -1.470, 21.057, -69.336, 13.367
0.939, -0.016, -1.301, 65.002, -65.674, -2.869
0.924, -0.046, -1.215, 98.877, -51.331, -13.123
0.888, -0.090, -1.178, 121.643, -34.668, -15.137
0.851, -0.081, -1.176, 133.667, -18.127, -12.146
0.833, -0.026, -1.213, 135.254, -3.113, -6.531
0.810, 0.022, -1.276, 131.836, 10.559, -3.235
0.756, 0.047, -1.327, 125.427, 19.653, -3.296
0.692, 0.080, -1.384, 116.577, 24.414, -4.333
0.631, 0.134, -1.431, 106.934, 25.696, -4.517
0.543, 0.189, -1.488, 100.708, 23.621, -5.371
0.426, 0.244, -1.553, 98.694, 18.982, -6.409
0.316, 0.295, -1.672, 99.060, 12.207, -3.418
0.202, 0.357, -1.769, 100.403, 2.319, 5.615
0.054, 0.430, -1.831, 100.891, -16.602, 14.648
-0.084, 0.477, -1.867, 101.135, -44.067, 22.400
-0.235, 0.503, -1.785, 97.473, -81.787, 30.212
-0.382, 0.512, -1.582, 90.576, -125.183, 35.339
-0.520, 0.488, -1.281, 81.238, -167.664, 36.499
-0.630, 0.450, -0.885, 63.416, -208.252, 36.621
-0.742, 0.423, -0.360, 35.767, -240.234, 39.246
-0.836, 0.459, 0.345, -2.014, -256.897, 44.556
-0.929, 0.519, 1.124, -46.936, -251.953, 49.500
-1.026, 0.560, 1.821, -92.590, -217.896, 51.636
-1.090, 0.626, 2.276, -120.056, -162.842, 52.002
-1.058, 0.905, 2.722, -109.619, -117.615, 50.049
-0.865, 1.324, 3.025, -47.546, -105.347, 33.325
-0.424, 1.625, 3.227, 46.753, -134.766, 1.160
0.156, 1.872, 3.652, 136.414, -189.575, -26.733
0.609, 2.000, 4.000, 189.087, -221.741, -44.067
1.067, 2.031, 3.943, 186.707, -196.716, -43.884
1.367, 2.072, 3.896, 135.193, -125.488, -25.208
1.432, 2.204, 3.381, 64.392, -37.048, -9.033
1.222, 2.130, 2.640, 5.005, 41.565, -17.639
0.947, 1.859, 2.157, -19.348, 94.482, -49.377
0.483, 1.518, 1.856, -19.836, 124.207, -83.313
0.140, 1.188, 1.563, -7.446, 144.287, -98.572
-0.109, 0.945, 1.382, 3.662, 150.757, -93.018
-0.312, 0.813, 1.180, 11.841, 153.259, -73.975
-0.401, 0.762, 0.961, 13.123, 156.555, -45.471
-0.423, 0.798, 0.823, 6.104, 153.503, -15.625
-0.428, 0.905, 0.799, -5.066, 146.118, 8.972
-0.393, 1.011, 0.779, -14.526, 139.648, 26.489
-0.327, 1.089, 0.715, -19.836, 136.719, 36.316
-0.277, 1.123, 0.586, -23.499, 137.207, 39.917
-0.234, 1.110, 0.434, -27.466, 140.137, 39.124
-0.180, 1.064, 0.281, -32.837, 142.029, 37.903
-0.156, 0.998, 0.148, -38.513, 139.648, 38.147
-0.125, 0.940, 0.018, -41.626, 134.827, 42.786
-0.083, 0.890, -0.104, -42.847, 127.869, 49.377
-0.048, 0.849, -0.267, -43.091, 119.507, 55.725
0.023, 0.808, -0.432, -42.969, 108.765, 66.772
0.132, 0.801, -0.552, -44.983, 93.933, 81.177
0.227, 0.798, -0.679, -45.471, 78.369, 93.811
0.340, 0.797, -0.823, -42.908, 65.186, 104.492
0.457, 0.809, -0.972, -38.696, 53.406, 113.464
0.540, 0.825, -1.128, -31.311, 43.030, 118.896
0.622, 0.832, -1.296, -22.278, 33.691, 121.887
0.703, 0.849, -1.417, -16.052, 22.034, 122.681
0.775, 0.852, -1.477, -12.024, 6.714, 121.155
0.825, 0.865, -1.499, -6.470, -8.423, 117.249
0.869, 0.877, -1.571, -4.456, -21.606, 107.117
1.012, 0.847, -1.687, -11.902, -29.480, 90.759
1.124, 0.827, -1.710, -31.738, -42.297, 73.608
1.196, 0.765, -1.563, -50.537, -58.960, 50.110
1.239, 0.662, -1.413, -57.251, -64.575, 22.827
1.210, 0.502, -1.350, -59.570, -58.777, -1.526
1.147, 0.361, -1.321, -65.186, -39.307, -19.653
1.063, 0.271, -1.268, -71.899, -12.573, -30.334
0.950, 0.197, -1.268, -72.083, 12.024, -34.241
0.804, 0.177, -1.299, -68.909, 32.776, -35.522
0.630, 0.174, -1.333, -64.087, 50.354, -34.546
0.456, 0.193, -1.373, -58.228, 66.833, -30.090
0.298, 0.213, -1.418, -52.368, 81.787, -19.531
0.235, 0.293, -1.524, -47.058, 97.900, -11.292
0.167, 0.359, -1.636, -39.001, 104.309, -3.723
0.141, 0.414, -1.682, -29.602, 100.403, 2.930
0.138, 0.452, -1.651, -20.813, 89.600, 3.845
0.152, 0.488, -1.536, -13.306, 77.148, 2.441
0.181, 0.502, -1.416, -6.104, 70.984, -0.916
0.162, 0.586, -1.286, -1.343, 67.383, -4.578
0.145, 0.657, -1.223, 2.625, 66.895, -3.845
0.179, 0.692, -1.269, 6.042, 76.660, -9.766
0.175, 0.709, -1.380, 8.667, 85.938, -20.874
0.058, 0.736, -1.490, 11.353, 89.478, -31.067
0.015, 0.738, -1.740, 16.479, 91.492, -39.673
-0.004, 0.723, -1.969, 24.048, 83.679, -46.265
-0.055, 0.676, -2.143, 32.776, 64.819, -55.054
-0.097, 0.613, -2.214, 37.781, 37.964, -62.012
-0.109, 0.540, -2.194, 36.011, 5.066, -63.477
-0.109, 0.457, -2.094, 31.555, -29.358, -60.913
-0.148, 0.385, -1.925, 28.870, -65.369, -54.443
-0.166, 0.322, -1.734, 30.640, -99.548, -43.701
-0.203, 0.274, -1.517, 35.400, -130.432, -30.212
-0.290, 0.225, -1.297, 41.687, -157.532, -16.785
-0.350, 0.176, -1.077, 48.706, -181.030, -3.540
-0.431, 0.130, -0.868, 55.847, -201.721, 9.277
-0.579, 0.063, -0.595, 62.622, -220.276, 22.400
-0.618, 0.070, -0.192, 67.017, -239.075, 36.438
-0.712, 0.083, 0.283, 61.890, -248.779, 53.955
-0.782, 0.146, 0.913, 44.983, -244.263, 74.402
-0.854, 0.201, 1.377, 22.766, -218.689, 93.018
-0.881, 0.354, 1.638, 4.761, -178.101, 110.107
-0.907, 0.523, 1.784, -1.099, -135.986, 119.385
-0.943, 0.769, 1.917, 6.104, -103.333, 119.568
-0.860, 1.059, 2.002, 23.193, -90.210, 111.633
-0.626, 1.349, 2.155, 45.776, -101.135, 94.910
-0.189, 1.570, 2.287, 70.129, -130.676, 73.975
0.148, 1.761, 2.569, 93.262, -168.457, 54.626
0.788, 2.051, 2.627, 114.319, -164.917, 38.147
0.999, 2.176, 2.783, 104.004, -133.179, 41.687
1.082, 2.167, 2.677, 76.172, -84.656, 41.748
1.128, 2.212, 2.381, 39.612, -25.146, 35.400
0.947, 2.134, 1.958, 16.235, 30.640, 18.127
0.645, 1.941, 1.702, 3.296, 72.510, -9.521
0.283, 1.662, 1.425, -1.709, 100.403, -36.194
-0.002, 1.398, 1.234, -0.977, 115.906, -50.110
-0.228, 1.197, 1.171, 0.610, 120.850, -52.673
-0.381, 1.070, 1.105, 1.526, 120.850, -46.204
-0.478, 1.024, 1.040, -1.160, 119.995, -35.339
-0.526, 1.027, 0.985, -7.446, 119.690, -24.536
-0.551, 1.074, 0.968, -14.465, 120.911, -16.418
-0.554, 1.110, 0.943, -21.790, 122.803, -13.245
-0.527, 1.114, 0.867, -30.823, 125.366, -15.564
-0.498, 1.074, 0.723, -38.757, 129.395, -21.179
-0.488, 0.992, 0.543, -42.053, 134.583, -27.100
-0.476, 0.903, 0.354, -41.931, 137.085, -30.579
-0.452, 0.818, 0.200, -39.124, 135.132, -28.870
-0.456, 0.730, 0.035, -34.668, 129.456, -21.545
-0.393, 0.682, -0.119, -33.081, 120.911, -7.019
-0.305, 0.673, -0.288, -36.499, 110.229, 12.634
-0.207, 0.685, -0.473, -41.199, 98.694, 35.583
-0.087, 0.731, -0.655, -47.424, 87.585, 60.181
0.061, 0.818, -0.781, -54.565, 76.843, 81.116
0.182, 0.935, -0.849, -60.913, 67.566, 96.375
0.297, 1.065, -0.875, -65.247, 64.209, 105.469
0.400, 1.179, -0.907, -67.322, 68.726, 105.225
0.483, 1.261, -0.982, -66.650, 77.515, 96.130
0.541, 1.298, -1.093, -60.364, 85.571, 78.674
0.592, 1.289, -1.164, -45.593, 84.351, 53.589
0.624, 1.272, -1.233, -21.301, 71.838, 23.254
0.685, 1.248, -1.344, 8.423, 57.922, -10.071
0.705, 1.161, -1.534, 31.738, 45.349, -47.791
0.818, 1.011, -1.690, 44.556, 32.654, -80.566
0.806, 0.856, -1.765, 41.626, 15.991, -107.788
0.766, 0.635, -1.753, 22.583, 7.019, -129.944
0.626, 0.383, -1.707, -6.226, 10.193, -138.306
0.534, 0.163, -1.748, -41.443, 29.602, -137.634
0.389, -0.008, -1.723, -77.576, 46.631, -122.253
0.183, -0.101, -1.696, -104.919, 62.561, -95.642
0.038, -0.124, -1.770, -117.737, 82.642, -64.026
-0.105, -0.120, -1.907, -119.263, 102.295, -31.006
-0.220, -0.067, -2.087, -108.398, 115.723, -0.427
-0.253, 0.008, -2.272, -88.257, 115.295, 26.611
-0.229, 0.126, -2.369, -63.171, 96.558, 48.950
-0.163, 0.253, -2.336, -35.278, 64.087, 64.697
-0.135, 0.380, -2.173, -9.094, 24.597, 71.960
-0.102, 0.498, -1.956, 10.376, -10.193, 71.228
-0.038, 0.585, -1.759, 23.621, -33.569, 66.162
0.044, 0.659, -1.623, 33.142, -44.250, 57.373
0.099, 0.717, -1.547, 40.955, -47.058, 46.021
0.103, 0.762, -1.535, 48.889, -45.227, 34.363
0.114, 0.802, -1.590, 55.054, -40.955, 24.963
0.153, 0.807, -1.682, 58.777, -36.743, 16.663
0.129, 0.812, -1.714, 59.875, -37.476, 7.690
0.083, 0.813, -1.734, 59.143, -42.236, 0.366
0.063, 0.817, -1.735, 57.007, -48.889, -3.235
0.059, 0.831, -1.722, 55.786, -58.777, -6.775
0.043, 0.833, -1.679, 57.739, -72.266, -12.085
0.017, 0.824, -1.620, 61.523, -88.379, -19.226
0.009, 0.791, -1.559, 65.186, -104.919, -27.771
-0.000, 0.736, -1.474, 67.810, -121.216, -37.354
-0.020, 0.648, -1.351, 67.810, -138.428, -47.180
-0.043, 0.534, -1.187, 61.646, -156.372, -55.237
-0.081, 0.435, -0.950, 48.096, -174.011, -58.044
-0.137, 0.344, -0.703, 29.785, -188.293, -55.603
-0.210, 0.277, -0.428, 10.315, -196.411, -49.255
-0.296, 0.235, -0.099, -10.986, -196.777, -39.490
-0.404, 0.219, 0.276, -36.499, -186.646, -28.015
-0.534, 0.246, 0.563, -62.378, -164.612, -15.930
-0.685, 0.339, 0.785, -79.102, -136.658, -5.432
-0.854, 0.446, 1.087, -85.876, -115.234, 1.282
-0.873, 0.544, 1.420, -88.379, -109.070, 9.766
-0.817, 0.722, 1.684, -86.365, -112.305, 15.320
-0.726, 0.948, 1.797, -73.242, -120.667, 13.367
-0.531, 1.139, 1.852, -43.457, -137.573, 4.883
-0.325, 1.294, 1.942, -0.549, -161.438, -11.292
-0.118, 1.380, 2.163, 40.344, -186.523, -31.433
0.180, 1.414, 2.282, 70.190, -202.820, -42.969
0.552, 1.448, 2.455, 92.712, -205.444, -41.260
0.767, 1.520, 2.600, 110.352, -189.880, -26.794
0.975, 1.580, 2.572, 112.976, -149.414, -2.563
1.135, 1.673, 2.413, 95.276, -95.459, 25.391
1.163, 1.793, 2.164, 63.904, -38.818, 45.959
1.062, 1.826, 1.867, 26.794, 14.893, 48.584
0.853, 1.710, 1.616, -4.272, 59.082, 36.011
0.571, 1.516, 1.451, -21.729, 89.355, 18.860
0.303, 1.346, 1.371, -29.480, 107.178, 6.470
0.087, 1.252, 1.331, -31.189, 118.408, 0.183
-0.069, 1.217, 1.350, -29.297, 125.610, -1.221
-0.200, 1.227, 1.378, -24.597, 132.263, -2.197
-0.352, 1.261, 1.419, -15.198, 140.808, -5.493
-0.455, 1.265, 1.366, -3.357, 152.893, -11.414
-0.530, 1.195, 1.223, 7.446, 167.236, -17.883
-0.545, 1.091, 0.985, 13.062, 180.298, -21.179
-0.527, 0.988, 0.686, 12.268, 188.232, -19.775
-0.506, 0.902, 0.412, 7.568, 190.979, -13.184
-0.469, 0.844, 0.163, 1.770, 188.599, -3.296
-0.373, 0.795, -0.022, -3.662, 180.054, 10.864
-0.288, 0.754, -0.242, -10.132, 166.931, 28.137
-0.192, 0.743, -0.466, -18.494, 153.687, 47.791
-0.099, 0.771, -0.660, -28.687, 142.639, 68.970
-0.016, 0.851, -0.808, -39.063, 131.836, 89.050
0.109, 0.935, -0.970, -47.485, 118.652, 105.530
0.234, 1.058, -1.114, -55.176, 103.333, 115.234
0.373, 1.194, -1.255, -60.608, 87.158, 113.464
0.502, 1.321, -1.356, -61.279, 67.810, 97.656
0.589, 1.393, -1.375, -57.495, 43.884, 66.895
0.585, 1.378, -1.268, -49.866, 16.418, 24.292
0.616, 1.252, -1.177, -39.978, -6.897, -21.484
0.755, 1.055, -1.059, -31.494, -22.217, -64.941
0.837, 0.827, -1.052, -25.391, -28.259, -103.394
0.918, 0.573, -1.056, -26.611, -22.949, -135.864
0.962, 0.304, -1.096, -31.555, -5.981, -162.598
0.942, 0.004, -1.153, -36.804, 21.545, -181.824
0.825, -0.329, -1.257, -36.987, 54.932, -187.073
0.690, -0.586, -1.368, -38.879, 85.449, -174.011
0.538, -0.773, -1.475, -46.387, 106.323, -142.822
0.128, -0.734, -1.823, -61.218, 138.184, -46.143
-0.136, -0.469, -2.000, -65.308, 154.236, 7.446
-0.379, -0.060, -2.202, -60.730, 171.143, 55.664
-0.565, 0.379, -2.505, -45.654, 183.655, 83.923
-0.581, 0.759, -2.833, -22.278, 181.274, 87.463
-0.551, 1.036, -3.006, 8.850, 152.771, 71.045
-0.399, 1.104, -2.962, 46.204, 102.173, 42.236
-0.347, 1.045, -2.649, 75.867, 32.532, 4.944
-0.263, 0.868, -2.184, 97.412, -28.809, -23.071
-0.258, 0.732, -1.798, 104.431, -58.899, -35.339
-0.206, 0.647, -1.588, 93.750, -60.242, -29.724
-0.151, 0.641, -1.539, 69.519, -45.532, -13.000
-0.071, 0.735, -1.628, 43.762, -23.926, 0.061
-0.036, 0.810, -1.792, 28.809, -10.620, 2.197
-0.012, 0.862, -1.923, 19.958, -8.850, -3.601
-0.016, 0.880, -2.015, 15.869, -16.663, -15.991
-0.030, 0.849, -2.027, 18.677, -32.532, -31.921
-0.077, 0.789, -1.982, 26.855, -54.504, -48.340
-0.156, 0.714, -1.921, 37.720, -75.867, -62.256
-0.216, 0.634, -1.883, 45.959, -95.215, -70.618
-0.262, 0.564, -1.824, 49.561, -116.211, -72.937
-0.318, 0.479, -1.723, 49.500, -141.113, -71.472
-0.355, 0.379, -1.554, 42.969, -169.800, -66.650
-0.403, 0.284, -1.263, 27.466, -200.562, -58.716
-0.443, 0.207, -0.882, 5.310, -228.027, -46.570
-0.500, 0.150, -0.464, -15.991, -247.803, -31.189
-0.474, 0.160, -0.019, -32.410, -259.949, -14.954
-0.512, 0.153, 0.420, -45.166, -257.446, -1.892
-0.579, 0.155, 0.780, -54.993, -242.310, 7.507
-0.679, 0.161, 1.142, -57.312, -218.018, 15.686
-0.777, 0.245, 1.380, -52.856, -188.416, 24.536
-0.760, 0.422, 1.564, -42.603, -167.480, 36.499
-0.591, 0.798, 1.903, -21.667, -166.809, 43.457
-0.410, 1.245, 2.348, 16.663, -180.420, 28.381
-0.180, 1.538, 2.579, 64.758, -196.350, -6.165
0.065, 1.684, 2.665, 101.074, -210.144, -44.189
0.381, 1.786, 2.800, 109.009, -215.698, -65.796
0.754, 1.853, 2.998, 94.910, -208.984, -59.509
1.198, 1.949, 3.231, 59.326, -188.721, -25.696
1.667, 2.233, 3.426, 2.197, -148.865, 20.081
1.952, 2.585, 3.240, -53.345, -83.618, 47.729
1.961, 2.653, 2.709, -89.905, -7.996, 28.748
1.656, 2.419, 2.346, -93.811, 46.570, -34.119
1.063, 1.893, 2.065, -65.002, 76.843, -109.131
0.528, 1.295, 1.748, -21.851, 94.971, -162.231
0.119, 0.754, 1.396, 19.348, 109.497, -181.580
-0.156, 0.395, 1.129, 46.570, 117.554, -166.199
-0.298, 0.251, 0.963, 49.500, 119.873, -125.488
-0.341, 0.247, 0.790, 35.767, 123.474, -73.853
-0.365, 0.356, 0.666, 13.794, 129.395, -23.682
-0.336, 0.477, 0.549, -7.751, 131.714, 16.541
-0.290, 0.584, 0.437, -22.705, 127.930, 41.992
-0.196, 0.648, 0.338, -31.372, 119.873, 51.514
-0.107, 0.701, 0.281, -37.598, 109.497, 48.096
-0.022, 0.705, 0.220, -44.250, 98.938, 36.865
0.027, 0.703, 0.162, -51.331, 92.346, 22.583
0.110, 0.620, 0.049, -54.504, 95.520, 10.010
0.201, 0.575, -0.094, -54.932, 101.746, 1.221
0.334, 0.496, -0.324, -50.903, 102.600, -6.165
0.434, 0.422, -0.562, -42.114, 98.816, -10.864
0.567, 0.334, -0.779, -33.508, 90.210, -9.705
0.659, 0.287, -0.922, -27.344, 75.256, -2.380
0.671, 0.280, -0.980, -23.499, 61.707, 9.949
0.750, 0.302, -1.055, -22.949, 55.054, 24.231
0.816, 0.396, -1.000, -24.841, 46.753, 38.574
0.879, 0.479, -1.000, -21.667, 39.612, 43.457
0.974, 0.550, -1.015, -12.817, 32.593, 40.527
1.004, 0.603, -1.015, -0.061, 24.902, 30.823
1.061, 0.633, -1.045, 14.771, 20.020, 15.259
1.043, 0.639, -1.068, 29.053, 16.907, -1.038
1.081, 0.526, -1.242, 43.457, 23.560, -16.418
1.095, 0.409, -1.406, 42.114, 30.884, -26.489
1.053, 0.314, -1.531, 23.621, 33.081, -27.039
0.999, 0.223, -1.575, -7.019, 35.400, -22.034
0.954, 0.166, -1.551, -43.335, 39.612, -11.902
0.937, 0.180, -1.483, -76.599, 43.640, 0.854
0.939, 0.200, -1.445, -95.520, 47.424, 10.681
0.954, 0.225, -1.430, -99.609, 51.636, 14.709
0.979, 0.251, -1.430, -92.407, 58.655, 12.756
0.931, 0.263, -1.448, -76.782, 70.862, 3.235
0.813, 0.271, -1.491, -56.702, 88.440, -10.376
0.639, 0.248, -1.554, -35.583, 109.009, -25.208
0.440, 0.203, -1.645, -15.259, 128.540, -36.316
0.258, 0.192, -1.783, 2.686, 144.470, -41.260
0.130, 0.214, -2.002, 19.348, 153.015, -41.077
0.036, 0.242, -2.208, 31.799, 148.804, -36.377
-0.010, 0.242, -2.337, 37.964, 132.568, -29.480
-0.029, 0.239, -2.359, 36.682, 105.164, -23.193
-0.021, 0.246, -2.280, 33.936, 75.195, -14.771
-0.012, 0.274, -2.146, 35.217, 50.476, -5.554
-0.025, 0.329, -2.029, 41.199, 31.372, 0.854
-0.008, 0.399, -1.999, 52.856, 18.433, 5.249
0.035, 0.469, -2.054, 69.397, 7.751, 6.775
0.076, 0.522, -2.127, 87.158, -5.310, 5.127
0.099, 0.560, -2.161, 101.013, -24.353, 0.488
0.115, 0.580, -2.122, 108.337, -49.866, -5.493
0.137, 0.554, -2.029, 110.107, -78.613, -13.367
0.148, 0.505, -1.896, 108.826, -107.910, -20.386
0.159, 0.442, -1.742, 103.760, -136.536, -24.658
0.172, 0.357, -1.533, 95.825, -166.138, -26.123
0.158, 0.268, -1.294, 86.670, -194.275, -25.574
0.109, 0.187, -1.024, 75.134, -219.116, -21.240
0.044, 0.130, -0.723, 59.570, -237.732, -12.451
-0.024, 0.106, -0.436, 39.917, -247.925, 0.183
-0.111, 0.125, -0.158, 18.677, -248.230, 15.808
-0.213, 0.180, 0.117, -1.587, -237.671, 29.968
-0.359, 0.227, 0.387, -18.616, -218.323, 39.612
-0.479, 0.286, 0.596, -33.752, -193.481, 45.349
-0.650, 0.323, 0.772, -50.171, -165.283, 49.133
-0.834, 0.345, 0.980, -65.796, -142.517, 53.711
-0.965, 0.433, 1.331, -70.068, -137.207, 60.486
-1.012, 0.630, 1.888, -63.782, -145.813, 69.824
-0.791, 0.864, 2.474, -52.307, -159.912, 80.627
-0.417, 1.260, 2.995, -30.884, -170.044, 89.233
0.078, 1.667, 3.405, 7.629, -169.189, 92.102
0.556, 1.966, 3.587, 51.697, -156.921, 83.069
0.920, 2.192, 3.620, 79.285, -139.832, 67.444
1.274, 2.318, 3.495, 79.407, -103.699, 50.720
1.331, 2.329, 3.273, 59.265, -54.504, 29.419
0.847, 1.920, 2.293, 15.076, 60.791, -27.466
0.494, 1.594, 1.872, 7.446, 101.868, -56.152
0.171, 1.280, 1.637, 9.216, 125.000, -72.449
-0.052, 1.065, 1.506, 10.864, 136.658, -70.374
-0.210, 0.955, 1.410, 11.230, 145.935, -56.763
-0.302, 0.897, 1.291, 11.597, 156.982, -40.161
-0.332, 0.881, 1.149, 9.277, 167.358, -25.574
-0.346, 0.880, 0.981, 5.981, 176.331, -15.686
-0.320, 0.862, 0.756, 3.540, 185.242, -9.521
-0.289, 0.817, 0.519, 0.000, 192.078, -5.127
-0.254, 0.761, 0.271, -7.568, 194.702, 0.427
-0.199, 0.742, 0.091, -20.325, 190.247, 11.047
-0.159, 0.755, -0.052, -33.875, 180.908, 22.888
-0.100, 0.742, -0.214, -44.861, 169.189, 31.494
0.007, 0.731, -0.383, -54.260, 155.151, 36.682
0.119, 0.700, -0.540, -61.646, 138.611, 38.513
0.246, 0.678, -0.653, -65.979, 120.850, 37.842
0.364, 0.636, -0.766, -66.528, 103.271, 36.865
0.430, 0.612, -0.854, -65.918, 87.585, 37.537
0.484, 0.599, -0.919, -65.491, 77.026, 39.429
0.549, 0.616, -0.970, -62.927, 69.885, 41.748
0.610, 0.664, -1.002, -53.284, 62.256, 42.114
0.672, 0.694, -1.063, -35.645, 53.345, 38.147
0.773, 0.728, -1.131, -13.916, 42.480, 29.785
0.877, 0.797, -1.137, 10.620, 29.541, 16.052
0.926, 0.847, -1.157, 38.025, 22.339, -6.104
0.997, 0.848, -1.195, 62.073, 22.949, -33.508
1.013, 0.877, -1.224, 75.745, 26.550, -64.514
0.860, 0.840, -1.257, 88.867, 39.856, -100.830
0.716, 0.720, -1.425, 100.830, 62.012, -136.169
0.537, 0.468, -1.749, 100.830, 80.994, -161.499
0.356, 0.196, -2.120, 76.355, 94.543, -165.833
0.138, 0.018, -2.340, 28.992, 100.952, -146.545
-0.143, -0.054, -2.510, -25.269, 109.497, -111.206
-0.404, -0.033, -2.707, -70.190, 121.155, -64.880
-0.567, 0.115, -2.910, -94.543, 127.625, -17.151
-0.579, 0.324, -3.151, -88.745, 115.784, 18.799
-0.381, 0.504, -3.278, -61.035, 73.303, 36.743
-0.130, 0.583, -3.131, -24.658, 6.348, 34.180
0.066, 0.495, -2.680, 12.146, -63.843, 17.578
0.217, 0.373, -2.163, 35.278, -116.577, 0.610
0.360, 0.279, -1.754, 45.471, -135.559, -5.859
0.470, 0.215, -1.434, 47.852, -131.897, -4.395
0.553, 0.211, -1.218, 45.105, -116.943, 2.747
0.637, 0.257, -1.078, 41.992, -96.558, 12.329
0.698, 0.339, -1.036, 42.114, -74.219, 20.752
0.700, 0.435, -1.041, 45.654, -52.551, 24.353
0.684, 0.524, -1.121, 51.575, -34.607, 23.254
0.681, 0.595, -1.259, 56.641, -24.719, 19.775
0.669, 0.641, -1.351, 58.472, -26.672, 16.724
0.634, 0.664, -1.395, 57.068, -36.865, 14.099
0.616, 0.668, -1.406, 51.453, -50.659, 14.404
0.601, 0.659, -1.401, 40.405, -63.538, 17.700
0.590, 0.652, -1.346, 25.269, -77.271, 23.499
0.575, 0.646, -1.247, 11.414, -92.163, 29.907
0.567, 0.645, -1.116, 2.930, -105.957, 34.729
0.574, 0.633, -0.984, -0.305, -117.310, 36.560
0.580, 0.625, -0.842, -0.977, -126.404, 35.706
0.566, 0.613, -0.726, -1.892, -131.714, 33.386
0.527, 0.595, -0.643, -3.357, -132.568, 30.151
0.434, 0.576, -0.576, -3.662, -130.127, 24.597
0.292, 0.543, -0.524, -2.014, -127.502, 17.334
0.130, 0.508, -0.459, 0.671, -127.625, 12.024
-0.034, 0.502, -0.394, 3.113, -130.188, 10.254
-0.196, 0.481, -0.339, 4.211, -134.399, 11.047
-0.357, 0.446, -0.264, 1.282, -142.639, 15.137
-0.585, 0.389, -0.081, -10.803, -158.264, 24.536
-0.702, 0.406, 0.260, -29.114, -180.054, 42.114
-0.760, 0.468, 0.891, -49.377, -193.787, 62.622
-0.781, 0.518, 1.464, -69.153, -185.364, 77.576
-0.704, 0.660, 2.005, -82.458, -161.865, 88.806
-0.485, 0.909, 2.482, -77.271, -133.789, 93.079
-0.186, 1.240, 2.717, -44.006, -111.694, 83.008
0.146, 1.470, 2.830, 9.460, -113.281, 59.937
0.403, 1.528, 2.912, 65.063, -129.578, 31.555
0.623, 1.463, 2.995, 100.586, -138.123, 17.212
0.727, 1.505, 3.132, 99.731, -121.826, 27.466
0.864, 1.680, 3.198, 68.359, -83.130, 52.612
0.921, 1.821, 2.962, 21.667, -31.250, 72.388
0.869, 1.912, 2.579, -27.100, 19.104, 77.698
0.656, 1.919, 2.193, -65.247, 61.462, 64.270
0.363, 1.794, 1.853, -79.285, 94.360, 35.889
0.109, 1.638, 1.630, -75.012, 114.319, 6.897
-0.101, 1.516, 1.485, -60.730, 123.657, -18.250
-0.270, 1.378, 1.333, -41.016, 130.432, -42.603
-0.414, 1.205, 1.142, -22.095, 138.916, -63.354
-0.509, 1.034, 0.965, -11.597, 145.447, -76.050
-0.554, 0.891, 0.800, -7.812, 149.963, -79.834
-0.555, 0.780, 0.639, -5.127, 154.480, -76.233
-0.528, 0.685, 0.474, -3.357, 157.043, -67.200
-0.490, 0.646, 0.359, -5.371, 155.273, -54.810
-0.443, 0.604, 0.243, -10.315, 150.146, -41.504
-0.398, 0.590, 0.153, -17.273, 143.311, -28.503
-0.326, 0.593, 0.079, -25.818, 132.996, -16.602
-0.238, 0.623, 0.007, -33.997, 121.033, -7.263
-0.099, 0.650, -0.103, -40.894, 108.765, -1.892
0.064, 0.674, -0.265, -48.523, 95.764, 0.610
0.211, 0.705, -0.398, -56.152, 83.740, 0.183
0.368, 0.733, -0.527, -61.523, 72.327, -4.333
0.489, 0.744, -0.666, -61.340, 62.805, -14.343
0.570, 0.731, -0.730, -55.237, 54.016, -27.710
0.655, 0.692, -0.775, -44.189, 44.800, -42.542
0.723, 0.654, -0.798, -28.503, 35.583, -59.448
0.765, 0.638, -0.807, -10.986, 28.381, -78.491
0.770, 0.614, -0.832, 9.888, 27.893, -99.426
0.766, 0.595, -0.876, 32.959, 32.104, -122.437
0.735, 0.554, -0.946, 62.500, 40.588, -145.874
0.675, 0.600, -1.034, 99.365, 51.208, -164.612
0.656, 0.687, -1.161, 140.137, 63.171, -183.777
0.557, 0.737, -1.288, 186.096, 72.571, -204.895
0.405, 0.788, -1.388, 230.225, 85.022, -224.915
0.226, 0.851, -1.523, 266.907, 101.379, -238.098
0.065, 0.928, -1.695, 292.480, 114.502, -238.892
-0.047, 1.026, -1.920, 300.171, 118.225, -227.295
-0.091, 1.170, -2.143, 285.156, 108.948, -207.336
-0.024, 1.309, -2.341, 248.413, 82.947, -183.960
0.126, 1.432, -2.458, 194.153, 42.175, -163.391
0.250, 1.521, -2.430, 126.099, -6.836, -149.658
0.348, 1.450, -2.262, 47.241, -53.894, -143.433
0.508, 1.191, -1.834, -122.803, -120.972, -137.939
0.547, 1.072, -1.659, -198.669, -124.573, -131.836
0.555, 0.963, -1.459, -259.766, -129.395, -131.287
0.536, 0.831, -1.280, -294.678, -137.085, -134.399
0.474, 0.692, -1.098, -305.237, -149.231, -142.822
0.412, 0.549, -0.919, -300.842, -164.734, -151.489
0.371, 0.424, -0.762, -287.537, -180.176, -153.931
0.361, 0.334, -0.680, -267.273, -194.519, -150.208
0.363, 0.279, -0.659, -245.789, -208.984, -142.334
0.315, 0.234, -0.614, -230.164, -225.952, -132.629
0.330, 0.253, -0.504, -216.248, -238.647, -118.958
0.333, 0.297, -0.431, -199.036, -253.235, -101.196
0.380, 0.345, -0.376, -178.833, -270.996, -85.144
0.359, 0.351, -0.410, -161.438, -285.156, -77.881
0.204, 0.445, -0.290, -152.649, -297.974, -76.660
0.130, 0.376, -0.242, -144.897, -302.673, -75.012
0.251, 0.431, -0.191, -133.728, -316.650, -70.374
0.241, 0.439, -0.198, -121.399, -327.515, -72.327
0.169, 0.433, -0.147, -117.859, -338.196, -80.200
0.113, 0.472, 0.023, -114.624, -355.225, -94.177
0.006, 0.329, 0.125, -102.478, -371.460, -112.183
-0.079, 0.170, 0.208, -84.473, -385.681, -127.930
-0.180, -0.018, 0.312, -66.467, -402.649, -135.803
-0.214, -0.188, 0.443, -52.429, -416.077, -140.137
-0.211, -0.387, 0.599, -44.678, -417.542, -141.785
-0.245, -0.541, 0.741, -42.725, -405.212, -134.949
-0.269, -0.655, 0.899, -44.067, -385.620, -115.967
-0.281, -0.725, 1.078, -44.128, -363.037, -86.670
-0.313, -0.728, 1.231, -38.147, -342.773, -54.016
-0.267, -0.612, 1.299, -24.841, -322.632, -20.508
-0.192, -0.373, 1.371, -7.263, -304.443, 6.165
-0.177, -0.208, 1.454, -0.488, -287.598, 18.799
-0.221, -0.091, 1.544, -18.005, -266.968, 20.142
-0.228, 0.105, 1.758, -57.190, -241.028, 20.508
-0.211, 0.215, 1.867, -108.276, -208.862, 24.719
-0.213, 0.295, 1.895, -160.400, -174.133, 30.396
-0.253, 0.364, 1.946, -201.965, -146.362, 32.410
-0.281, 0.354, 2.022, -227.600, -125.366, 31.616
-0.145, 0.357, 2.006, -238.220, -100.098, 29.968
-0.101, 0.527, 1.932, -226.501, -74.768, 45.776
-0.120, 0.395, 1.564, -195.374, -41.504, 59.875
-0.160, 0.573, 1.331, -177.429, -67.688, 35.217
0.042, 0.889, 2.536, -142.029, -139.465, 39.124
-0.342, 1.135, 2.468, -184.692, -52.551, 36.194
0.091, 1.408, 2.576, -255.676, 41.443, 17.273
-0.223, 1.126, 2.073, -268.555, 62.927, -16.357
-0.078, 0.882, 1.828, -244.446, 70.679, -44.495
0.136, 0.231, 1.429, -174.622, 74.768, -69.397
-0.070, -0.265, 1.011, -102.356, 84.717, -42.297
-0.272, -0.248, 0.683, -51.392, 98.450, 19.836
-0.228, -0.123, 0.551, -29.053, 89.722, 75.256
-0.519, 0.096, -0.245, -58.411, 45.837, 109.619
-0.468, 0.259, -0.447, -85.022, -11.414, 128.723
-0.219, 0.583, -0.424, -93.628, -76.111, 141.907
0.787, 2.627, 1.382, 73.181, -175.354, 118.591
0.305, 0.493, 1.721, 380.066, -158.997, 49.622
-0.279, 0.809, 0.747, 272.827, -104.248, 19.470
-0.168, 0.798, 0.321, 229.736, -116.394, -15.808
0.028, 0.942, -0.156, 276.855, -138.306, -30.884
-0.522, 1.169, -0.830, 413.879, -174.072, -81.299
-1.159, 0.567, -0.023, 640.686, -219.910, -179.443
0.626, -2.299, 1.103, 644.592, -77.332, -232.544
-0.095, 0.135, -0.065, -119.873, 4.578, -70.862
0.007, -0.778, 2.365, 96.863, -49.072, -44.128
0.033, 0.242, 0.482, -15.747, -5.981, -28.503
-0.055, 0.188, 0.859, -28.259, -23.621, -11.841
-0.063, 0.005, 1.170, 36.133, -19.104, -7.141
-0.141, 0.063, 0.745, 0.427, 0.488, -3.601
-0.127, -0.156, 1.077, 36.804, -10.925, -11.108
-0.080, -0.104, 1.101, 62.866, -15.869, -7.751
-0.064, 0.071, 1.398, 108.704, -13.000, -2.136
-0.063, -0.055, 1.317, 162.231, -8.118, -8.484
-0.121, -0.205, 0.850, 160.034, -10.010, -7.202
-0.088, -0.188, 0.796, 104.797, -25.269, 2.930
-0.031, -0.130, 0.797, 63.599, -31.555, 12.451
-0.031, -0.095, 0.813, 32.166, -28.809, 18.494
-0.024, -0.074, 0.824, 10.254, -14.893, 15.930
-0.011, -0.048, 0.862, -7.935, -1.648, 16.785
-0.202, -0.676, 0.947, -23.926, 1.648, 34.851
0.073, -0.088, 1.048, -31.677, -5.676, 72.876
0.100, 0.051, 1.069, -21.423, -7.507, 51.697
0.008, 0.161, 1.033, -7.019, -10.010, 24.475
-0.040, 0.202, 0.995, 6.470, -6.470, 15.686
-0.012, 0.227, 0.978, 14.282, -2.441, 19.897
0.045, 0.224, 0.984, 17.761, 1.282, 22.278
0.079, 0.157, 0.987, 20.203, 3.723, 13.916
0.070, 0.081, 0.981, 22.156, 4.578, 5.798
-0.005, -0.017, 0.990, 23.621, 4.761, 2.563
-0.031, -0.044, 0.957, 26.855, 6.165, -0.793
-0.029, -0.061, 0.934, 24.963, 5.066, -0.122
-0.027, -0.070, 0.924, 19.531, 4.150, 0.977
-0.017, -0.074, 0.927, 11.536, 1.953, 2.380
-0.014, -0.069, 0.937, 3.052, -0.488, 2.991
-0.018, -0.057, 0.951, -3.296, -2.869, 2.991
-0.025, -0.048, 0.967, -7.141, -4.150, 2.869
-0.028, -0.039, 0.981, -7.935, -4.517, 2.991
-0.026, -0.031, 0.990, -6.226, -4.028, 2.686
-0.028, -0.031, 0.990, -2.808, -2.991, 2.319
-0.029, -0.034, 0.985, 1.038, -1.953, 2.014
-0.029, -0.039, 0.978, 4.089, -0.671, 2.014
-0.026, -0.045, 0.970, 5.859, 0.061, 2.197
-0.024, -0.052, 0.962, 6.165, 0.305, 2.258
-0.022, -0.055, 0.959, 5.127, -0.061, 2.258
-0.023, -0.057, 0.957, 2.808, -0.916, 2.258
-0.023, -0.055, 0.958, 0.244, -1.831, 2.197
-0.024, -0.052, 0.960, -2.075, -2.502, 2.563
-0.024, -0.049, 0.967, -3.906, -3.113, 2.808
-0.026, -0.045, 0.973, -4.700, -3.357, 2.747
-0.027, -0.041, 0.976, -4.578, -3.235, 2.502
-0.027, -0.039, 0.978, -3.418, -2.991, 2.686
-0.028, -0.038, 0.977, -1.892, -2.502, 2.563
-0.028, -0.040, 0.977, -0.366, -1.953, 2.380
-0.028, -0.042, 0.974, 0.671, -1.526, 2.502
-0.026, -0.044, 0.971, 1.404, -1.221, 2.502
-0.026, -0.046, 0.968, 1.648, -1.038, 2.502
-0.026, -0.046, 0.966, 1.221, -1.221, 2.441
-0.026, -0.046, 0.967, 0.793, -1.404, 2.563
-0.026, -0.046, 0.968, 0.061, -1.526, 2.625
-0.027, -0.045, 0.970, -0.244, -1.709, 2.502
